PARTICIPANT;TRIAL_INDEX_targets;identifier;Trial_Index_all;counterbalance;block;condition;GRAM;LENGTH;sentence;isquestion;question;correctanswer;correctkey;ACCURACY;QUESTION_BUTTON_PRESSED;QUESTION_RT;SENTENCE_RT;IA_ID;IA_LABEL;IA_CAT;IA_FIRST_FIX_PROGRESSIVE;IA_FIRST_FIXATION_DURATION;IA_FIRST_RUN_DWELL_TIME;IA_REGRESSION_PATH_DURATION;IA_DWELL_TIME;IA_REGRESSION_OUT;IA_SKIP;DWELL_TIME_SENTENCE;AGE;GENDER
1;1;t3;4;1;1;G_shortA;G;short;I 2020*holder*kommunen*nynorskkurs*for offentlig ansatte.;n;no question;no answer;no answer;-1;-1;-1;5353;1;I 2020;A1;0;473;473;473;473;0;1;3920;29;M
1;1;t3;4;1;1;G_shortA;G;short;I 2020*holder*kommunen*nynorskkurs*for offentlig ansatte.;n;no question;no answer;no answer;-1;-1;-1;5353;2;holder;V;1;259;259;1116;643;1;0;3920;29;M
1;1;t3;4;1;1;G_shortA;G;short;I 2020*holder*kommunen*nynorskkurs*for offentlig ansatte.;n;no question;no answer;no answer;-1;-1;-1;5353;3;kommunen;S;1;242;242;242;242;0;0;3920;29;M
1;1;t3;4;1;1;G_shortA;G;short;I 2020*holder*kommunen*nynorskkurs*for offentlig ansatte.;n;no question;no answer;no answer;-1;-1;-1;5353;4;nynorskkurs;O;1;283;472;472;1021;0;0;3920;29;M
1;1;t3;4;1;1;G_shortA;G;short;I 2020*holder*kommunen*nynorskkurs*for offentlig ansatte.;n;no question;no answer;no answer;-1;-1;-1;5353;5;for offentlig ansatte.;A2;1;153;742;2090;1541;1;0;3920;29;M
1;2;t4;5;1;1;UG_shortA;UG;short;L?rdag kveld*gutten*spiser*gelato*p? Solsiden.;n;no question;no answer;no answer;-1;-1;-1;4282;1;Lørdag kveld;A1;1;232;232;232;482;0;0;3068;29;M
1;2;t4;5;1;1;UG_shortA;UG;short;L?rdag kveld*gutten*spiser*gelato*p? Solsiden.;n;no question;no answer;no answer;-1;-1;-1;4282;2;gutten;S;1;163;163;700;450;1;0;3068;29;M
1;2;t4;5;1;1;UG_shortA;UG;short;L?rdag kveld*gutten*spiser*gelato*p? Solsiden.;n;no question;no answer;no answer;-1;-1;-1;4282;3;spiser;V;.;.;.;.;0;.;1;3068;29;M
1;2;t4;5;1;1;UG_shortA;UG;short;L?rdag kveld*gutten*spiser*gelato*p? Solsiden.;n;no question;no answer;no answer;-1;-1;-1;4282;4;gelato;O;1;222;445;445;904;0;0;3068;29;M
1;2;t4;5;1;1;UG_shortA;UG;short;L?rdag kveld*gutten*spiser*gelato*p? Solsiden.;n;no question;no answer;no answer;-1;-1;-1;4282;5;på Solsiden.;A2;1;336;336;1691;1232;1;0;3068;29;M
1;3;t10;9;1;1;UG_longA;UG;long;Om formiddagen p? s?ndager*Julie*synger*salmer*i kirken.;n;no question;no answer;no answer;-1;-1;-1;5353;1;Om formiddagen på søndager;A1;1;151;1833;1833;1833;0;0;3840;29;M
1;3;t10;9;1;1;UG_longA;UG;long;Om formiddagen p? s?ndager*Julie*synger*salmer*i kirken.;n;no question;no answer;no answer;-1;-1;-1;5353;2;Julie;S;1;119;249;249;249;0;0;3840;29;M
1;3;t10;9;1;1;UG_longA;UG;long;Om formiddagen p? s?ndager*Julie*synger*salmer*i kirken.;n;no question;no answer;no answer;-1;-1;-1;5353;3;synger;V;1;206;206;206;534;0;0;3840;29;M
1;3;t10;9;1;1;UG_longA;UG;long;Om formiddagen p? s?ndager*Julie*synger*salmer*i kirken.;n;no question;no answer;no answer;-1;-1;-1;5353;4;salmer;O;1;342;342;342;583;0;0;3840;29;M
1;3;t10;9;1;1;UG_longA;UG;long;Om formiddagen p? s?ndager*Julie*synger*salmer*i kirken.;n;no question;no answer;no answer;-1;-1;-1;5353;5;i kirken.;A2;1;447;641;1210;641;1;0;3840;29;M
1;4;t2;10;1;1;G_shortA;G;short;Hver dag*lufter*mannen*hunden sin*i parken.;y;Lufter mannen hunden sin i parken?;t;Right;1;Right;2396;4194;1;Hver dag;A1;1;293;293;293;508;0;0;2812;29;M
1;4;t2;10;1;1;G_shortA;G;short;Hver dag*lufter*mannen*hunden sin*i parken.;y;Lufter mannen hunden sin i parken?;t;Right;1;Right;2396;4194;2;lufter;V;0;294;294;509;294;0;1;2812;29;M
1;4;t2;10;1;1;G_shortA;G;short;Hver dag*lufter*mannen*hunden sin*i parken.;y;Lufter mannen hunden sin i parken?;t;Right;1;Right;2396;4194;3;mannen;S;1;177;177;885;376;1;0;2812;29;M
1;4;t2;10;1;1;G_shortA;G;short;Hver dag*lufter*mannen*hunden sin*i parken.;y;Lufter mannen hunden sin i parken?;t;Right;1;Right;2396;4194;4;hunden sin;O;1;142;142;142;1187;0;0;2812;29;M
1;4;t2;10;1;1;G_shortA;G;short;Hver dag*lufter*mannen*hunden sin*i parken.;y;Lufter mannen hunden sin i parken?;t;Right;1;Right;2396;4194;5;i parken.;A2;1;178;178;1492;447;1;0;2812;29;M
1;5;t8;12;1;1;UG_longA;UG;long;Om ettermiddagen p? torsdager*gutten*spiller*fotball*med vennene sine.;y;Spiller gutten fotball med faren sin?;f;Left;1;Left;3270;6488;1;Om ettermiddagen på torsdager;A1;1;251;929;929;1329;0;0;4609;29;M
1;5;t8;12;1;1;UG_longA;UG;long;Om ettermiddagen p? torsdager*gutten*spiller*fotball*med vennene sine.;y;Spiller gutten fotball med faren sin?;f;Left;1;Left;3270;6488;2;gutten;S;1;173;173;173;598;0;0;4609;29;M
1;5;t8;12;1;1;UG_longA;UG;long;Om ettermiddagen p? torsdager*gutten*spiller*fotball*med vennene sine.;y;Spiller gutten fotball med faren sin?;f;Left;1;Left;3270;6488;3;spiller;V;1;290;426;568;757;1;0;4609;29;M
1;5;t8;12;1;1;UG_longA;UG;long;Om ettermiddagen p? torsdager*gutten*spiller*fotball*med vennene sine.;y;Spiller gutten fotball med faren sin?;f;Left;1;Left;3270;6488;4;fotball;O;1;246;246;246;246;0;0;4609;29;M
1;5;t8;12;1;1;UG_longA;UG;long;Om ettermiddagen p? torsdager*gutten*spiller*fotball*med vennene sine.;y;Spiller gutten fotball med faren sin?;f;Left;1;Left;3270;6488;5;med vennene sine.;A2;1;428;574;2693;1679;1;0;4609;29;M
1;6;t9;13;1;1;UG_longA;UG;long;Veldig tidlig om morgenen*hunden*drikker*vann*fra toalettet.;n;no question;no answer;no answer;-1;-1;-1;5827;1;Veldig tidlig om morgenen;A1;1;201;920;920;920;0;0;3932;29;M
1;6;t9;13;1;1;UG_longA;UG;long;Veldig tidlig om morgenen*hunden*drikker*vann*fra toalettet.;n;no question;no answer;no answer;-1;-1;-1;5827;2;hunden;S;1;375;375;375;621;0;0;3932;29;M
1;6;t9;13;1;1;UG_longA;UG;long;Veldig tidlig om morgenen*hunden*drikker*vann*fra toalettet.;n;no question;no answer;no answer;-1;-1;-1;5827;3;drikker;V;1;130;321;321;601;0;0;3932;29;M
1;6;t9;13;1;1;UG_longA;UG;long;Veldig tidlig om morgenen*hunden*drikker*vann*fra toalettet.;n;no question;no answer;no answer;-1;-1;-1;5827;4;vann;O;1;239;239;239;506;0;0;3932;29;M
1;6;t9;13;1;1;UG_longA;UG;long;Veldig tidlig om morgenen*hunden*drikker*vann*fra toalettet.;n;no question;no answer;no answer;-1;-1;-1;5827;5;fra toalettet.;A2;1;135;458;2077;1284;1;0;3932;29;M
1;7;t7;15;1;1;G_longA;G;long;F?r juleferien i desember*sender*bestefar*julekort*til alle barnebarna sine.;y;Sender bestefar julekort i november?;f;Left;1;Left;3549;7738;1;Før juleferien i desember;A1;1;207;1411;1411;2575;0;0;5836;29;M
1;7;t7;15;1;1;G_longA;G;long;F?r juleferien i desember*sender*bestefar*julekort*til alle barnebarna sine.;y;Sender bestefar julekort i november?;f;Left;1;Left;3549;7738;2;sender;V;1;313;313;313;634;0;0;5836;29;M
1;7;t7;15;1;1;G_longA;G;long;F?r juleferien i desember*sender*bestefar*julekort*til alle barnebarna sine.;y;Sender bestefar julekort i november?;f;Left;1;Left;3549;7738;3;bestefar;S;1;240;240;240;375;0;0;5836;29;M
1;7;t7;15;1;1;G_longA;G;long;F?r juleferien i desember*sender*bestefar*julekort*til alle barnebarna sine.;y;Sender bestefar julekort i november?;f;Left;1;Left;3549;7738;4;julekort;O;1;271;271;271;485;0;0;5836;29;M
1;7;t7;15;1;1;G_longA;G;long;F?r juleferien i desember*sender*bestefar*julekort*til alle barnebarna sine.;y;Sender bestefar julekort i november?;f;Left;1;Left;3549;7738;5;til alle barnebarna sine.;A2;1;247;1767;3601;1767;1;0;5836;29;M
1;8;t1;17;1;1;G_shortA;G;short;I helgen*leser*pappa*avisen*p? sofaen.;y;Leser pappa romaner p? sofaen?;f;Left;1;Left;2817;3596;1;I helgen;A1;0;177;177;177;177;0;1;1914;29;M
1;8;t1;17;1;1;G_shortA;G;short;I helgen*leser*pappa*avisen*p? sofaen.;y;Leser pappa romaner p? sofaen?;f;Left;1;Left;2817;3596;2;leser;V;1;273;273;273;273;0;0;1914;29;M
1;8;t1;17;1;1;G_shortA;G;short;I helgen*leser*pappa*avisen*p? sofaen.;y;Leser pappa romaner p? sofaen?;f;Left;1;Left;2817;3596;3;pappa;S;1;193;303;303;700;0;0;1914;29;M
1;8;t1;17;1;1;G_shortA;G;short;I helgen*leser*pappa*avisen*p? sofaen.;y;Leser pappa romaner p? sofaen?;f;Left;1;Left;2817;3596;4;avisen;O;1;204;204;204;204;0;0;1914;29;M
1;8;t1;17;1;1;G_shortA;G;short;I helgen*leser*pappa*avisen*p? sofaen.;y;Leser pappa romaner p? sofaen?;f;Left;1;Left;2817;3596;5;på sofaen.;A2;1;147;560;1134;560;1;0;1914;29;M
1;9;t6;18;1;1;G_longA;G;long;Hver eneste ettermiddag i jula*baker*jenta*pepperkaker*hos bestemor.;n;no question;no answer;no answer;-1;-1;-1;4349;1;Hver eneste ettermiddag i jula;A1;1;197;768;768;1268;0;0;2951;29;M
1;9;t6;18;1;1;G_longA;G;long;Hver eneste ettermiddag i jula*baker*jenta*pepperkaker*hos bestemor.;n;no question;no answer;no answer;-1;-1;-1;4349;2;baker;V;1;270;517;517;517;0;0;2951;29;M
1;9;t6;18;1;1;G_longA;G;long;Hver eneste ettermiddag i jula*baker*jenta*pepperkaker*hos bestemor.;n;no question;no answer;no answer;-1;-1;-1;4349;3;jenta;S;.;.;.;.;0;.;1;2951;29;M
1;9;t6;18;1;1;G_longA;G;long;Hver eneste ettermiddag i jula*baker*jenta*pepperkaker*hos bestemor.;n;no question;no answer;no answer;-1;-1;-1;4349;4;pepperkaker;O;1;297;512;512;772;0;0;2951;29;M
1;9;t6;18;1;1;G_longA;G;long;Hver eneste ettermiddag i jula*baker*jenta*pepperkaker*hos bestemor.;n;no question;no answer;no answer;-1;-1;-1;4349;5;hos bestemor.;A2;1;394;394;1154;394;1;0;2951;29;M
1;10;t5;20;1;1;UG_shortA;UG;short;Om natten*Marit*l?ser*kryssord*p? mobilen.;n;no question;no answer;no answer;-1;-1;-1;4848;1;Om natten;A1;1;365;742;742;902;0;0;3532;29;M
1;10;t5;20;1;1;UG_shortA;UG;short;Om natten*Marit*l?ser*kryssord*p? mobilen.;n;no question;no answer;no answer;-1;-1;-1;4848;2;Marit;S;0;175;175;335;175;0;1;3532;29;M
1;10;t5;20;1;1;UG_shortA;UG;short;Om natten*Marit*l?ser*kryssord*p? mobilen.;n;no question;no answer;no answer;-1;-1;-1;4848;3;løser;V;1;248;758;1093;1100;1;0;3532;29;M
1;10;t5;20;1;1;UG_shortA;UG;short;Om natten*Marit*l?ser*kryssord*p? mobilen.;n;no question;no answer;no answer;-1;-1;-1;4848;4;kryssord;O;1;256;256;256;429;0;0;3532;29;M
1;10;t5;20;1;1;UG_shortA;UG;short;Om natten*Marit*l?ser*kryssord*p? mobilen.;n;no question;no answer;no answer;-1;-1;-1;4848;5;på mobilen.;A2;1;239;239;1441;926;1;0;3532;29;M
1;11;t31;23;1;4;G_shortA;G;short;Neste ?r*skriver*Marius*avhandling*p? universitetet.;n;no question;no answer;no answer;-1;-1;-1;4738;1;Neste år;A1;0;236;236;236;432;0;1;2984;29;M
1;11;t31;23;1;4;G_shortA;G;short;Neste ?r*skriver*Marius*avhandling*p? universitetet.;n;no question;no answer;no answer;-1;-1;-1;4738;2;skriver;V;1;175;175;411;485;1;0;2984;29;M
1;11;t31;23;1;4;G_shortA;G;short;Neste ?r*skriver*Marius*avhandling*p? universitetet.;n;no question;no answer;no answer;-1;-1;-1;4738;3;Marius;S;1;195;195;382;195;1;0;2984;29;M
1;11;t31;23;1;4;G_shortA;G;short;Neste ?r*skriver*Marius*avhandling*p? universitetet.;n;no question;no answer;no answer;-1;-1;-1;4738;4;avhandling;O;1;258;680;680;969;0;0;2984;29;M
1;11;t31;23;1;4;G_shortA;G;short;Neste ?r*skriver*Marius*avhandling*p? universitetet.;n;no question;no answer;no answer;-1;-1;-1;4738;5;på universitetet.;A2;1;263;263;1511;903;1;0;2984;29;M
1;12;t39;25;1;4;UG_longA;UG;long;P? alle hverdager etter jobb*Ingrid*baker*rundstykker*p? kj?kkenet.;y;Baker Ingrid rundstykker etter jobb?;t;Right;1;Right;3467;4860;1;På alle hverdager etter jobb;A1;1;188;968;968;1211;0;0;3264;29;M
1;12;t39;25;1;4;UG_longA;UG;long;P? alle hverdager etter jobb*Ingrid*baker*rundstykker*p? kj?kkenet.;y;Baker Ingrid rundstykker etter jobb?;t;Right;1;Right;3467;4860;2;Ingrid;S;1;294;294;537;294;1;0;3264;29;M
1;12;t39;25;1;4;UG_longA;UG;long;P? alle hverdager etter jobb*Ingrid*baker*rundstykker*p? kj?kkenet.;y;Baker Ingrid rundstykker etter jobb?;t;Right;1;Right;3467;4860;3;baker;V;1;233;233;233;438;0;0;3264;29;M
1;12;t39;25;1;4;UG_longA;UG;long;P? alle hverdager etter jobb*Ingrid*baker*rundstykker*p? kj?kkenet.;y;Baker Ingrid rundstykker etter jobb?;t;Right;1;Right;3467;4860;4;rundstykker;O;1;174;385;970;765;1;0;3264;29;M
1;12;t39;25;1;4;UG_longA;UG;long;P? alle hverdager etter jobb*Ingrid*baker*rundstykker*p? kj?kkenet.;y;Baker Ingrid rundstykker etter jobb?;t;Right;1;Right;3467;4860;5;på kjøkkenet.;A2;1;556;556;556;556;0;0;3264;29;M
1;13;t35;26;1;4;UG_shortA;UG;short;F?r lunsj*sjefen*spiser*en kanelbolle*p? kontoret.;y;Spiser sjefen en kanelbolle i bilen f?r lunsj?;f;Left;1;Left;9148;8341;1;Før lunsj;A1;0;181;181;181;181;0;1;4143;29;M
1;13;t35;26;1;4;UG_shortA;UG;short;F?r lunsj*sjefen*spiser*en kanelbolle*p? kontoret.;y;Spiser sjefen en kanelbolle i bilen f?r lunsj?;f;Left;1;Left;9148;8341;2;sjefen;S;1;173;173;506;325;1;0;4143;29;M
1;13;t35;26;1;4;UG_shortA;UG;short;F?r lunsj*sjefen*spiser*en kanelbolle*p? kontoret.;y;Spiser sjefen en kanelbolle i bilen f?r lunsj?;f;Left;1;Left;9148;8341;3;spiser;V;1;230;496;496;496;0;0;4143;29;M
1;13;t35;26;1;4;UG_shortA;UG;short;F?r lunsj*sjefen*spiser*en kanelbolle*p? kontoret.;y;Spiser sjefen en kanelbolle i bilen f?r lunsj?;f;Left;1;Left;9148;8341;4;en kanelbolle;O;1;254;563;563;1661;0;0;4143;29;M
1;13;t35;26;1;4;UG_shortA;UG;short;F?r lunsj*sjefen*spiser*en kanelbolle*p? kontoret.;y;Spiser sjefen en kanelbolle i bilen f?r lunsj?;f;Left;1;Left;9148;8341;5;på kontoret.;A2;1;93;1252;2578;1480;1;0;4143;29;M
1;14;t33;28;1;4;UG_shortA;UG;short;P? fredager*vennene*kj?per*godteri*p? butikken.;y;Stjeler vennene godteri p? butikken?;f;Left;1;Left;1988;5355;1;På fredager;A1;1;399;685;685;890;0;0;3254;29;M
1;14;t33;28;1;4;UG_shortA;UG;short;P? fredager*vennene*kj?per*godteri*p? butikken.;y;Stjeler vennene godteri p? butikken?;f;Left;1;Left;1988;5355;2;vennene;S;1;722;722;722;1028;0;0;3254;29;M
1;14;t33;28;1;4;UG_shortA;UG;short;P? fredager*vennene*kj?per*godteri*p? butikken.;y;Stjeler vennene godteri p? butikken?;f;Left;1;Left;1988;5355;3;kjøper;V;0;165;165;165;165;0;1;3254;29;M
1;14;t33;28;1;4;UG_shortA;UG;short;P? fredager*vennene*kj?per*godteri*p? butikken.;y;Stjeler vennene godteri p? butikken?;f;Left;1;Left;1988;5355;4;godteri;O;1;492;492;657;612;1;0;3254;29;M
1;14;t33;28;1;4;UG_shortA;UG;short;P? fredager*vennene*kj?per*godteri*p? butikken.;y;Stjeler vennene godteri p? butikken?;f;Left;1;Left;1988;5355;5;på butikken.;A2;1;559;559;1190;559;1;0;3254;29;M
1;15;t32;31;1;4;G_shortA;G;short;Etter skolen*sender*jenta*meldinger*p? Snapchat.;n;no question;no answer;no answer;-1;-1;-1;2933;1;Etter skolen;A1;1;166;344;344;344;0;0;1687;29;M
1;15;t32;31;1;4;G_shortA;G;short;Etter skolen*sender*jenta*meldinger*p? Snapchat.;n;no question;no answer;no answer;-1;-1;-1;2933;2;sender;V;1;222;222;222;222;0;0;1687;29;M
1;15;t32;31;1;4;G_shortA;G;short;Etter skolen*sender*jenta*meldinger*p? Snapchat.;n;no question;no answer;no answer;-1;-1;-1;2933;3;jenta;S;.;.;.;.;0;.;1;1687;29;M
1;15;t32;31;1;4;G_shortA;G;short;Etter skolen*sender*jenta*meldinger*p? Snapchat.;n;no question;no answer;no answer;-1;-1;-1;2933;4;meldinger;O;1;291;291;291;515;0;0;1687;29;M
1;15;t32;31;1;4;G_shortA;G;short;Etter skolen*sender*jenta*meldinger*p? Snapchat.;n;no question;no answer;no answer;-1;-1;-1;2933;5;på Snapchat.;A2;1;606;606;830;606;1;0;1687;29;M
1;16;t40;33;1;4;UG_longA;UG;long;Rundt klokken fire p? l?rdag*Hanne*treffer*venninnen sin*p? kaf?.;n;no question;no answer;no answer;-1;-1;-1;5420;1;Rundt klokken fire på lørdag;A1;1;205;916;916;1808;0;0;3636;29;M
1;16;t40;33;1;4;UG_longA;UG;long;Rundt klokken fire p? l?rdag*Hanne*treffer*venninnen sin*p? kaf?.;n;no question;no answer;no answer;-1;-1;-1;5420;2;Hanne;S;1;165;165;165;165;0;0;3636;29;M
1;16;t40;33;1;4;UG_longA;UG;long;Rundt klokken fire p? l?rdag*Hanne*treffer*venninnen sin*p? kaf?.;n;no question;no answer;no answer;-1;-1;-1;5420;3;treffer;V;1;282;282;282;469;0;0;3636;29;M
1;16;t40;33;1;4;UG_longA;UG;long;Rundt klokken fire p? l?rdag*Hanne*treffer*venninnen sin*p? kaf?.;n;no question;no answer;no answer;-1;-1;-1;5420;4;venninnen sin;O;1;205;205;595;663;1;0;3636;29;M
1;16;t40;33;1;4;UG_longA;UG;long;Rundt klokken fire p? l?rdag*Hanne*treffer*venninnen sin*p? kaf?.;n;no question;no answer;no answer;-1;-1;-1;5420;5;på kafé.;A2;1;228;403;1678;531;1;0;3636;29;M
1;17;t37;36;1;4;G_longA;G;long;I partallsuker om sommeren*selger*Monica*smykker*p? vikingmarkedet.;n;no question;no answer;no answer;-1;-1;-1;5985;1;I partallsuker om sommeren;A1;1;325;2081;2081;2081;0;0;3550;29;M
1;17;t37;36;1;4;G_longA;G;long;I partallsuker om sommeren*selger*Monica*smykker*p? vikingmarkedet.;n;no question;no answer;no answer;-1;-1;-1;5985;2;selger;V;1;248;248;248;248;0;0;3550;29;M
1;17;t37;36;1;4;G_longA;G;long;I partallsuker om sommeren*selger*Monica*smykker*p? vikingmarkedet.;n;no question;no answer;no answer;-1;-1;-1;5985;3;Monica;S;.;.;.;.;0;.;1;3550;29;M
1;17;t37;36;1;4;G_longA;G;long;I partallsuker om sommeren*selger*Monica*smykker*p? vikingmarkedet.;n;no question;no answer;no answer;-1;-1;-1;5985;4;smykker;O;1;413;602;602;602;0;0;3550;29;M
1;17;t37;36;1;4;G_longA;G;long;I partallsuker om sommeren*selger*Monica*smykker*p? vikingmarkedet.;n;no question;no answer;no answer;-1;-1;-1;5985;5;på vikingmarkedet.;A2;1;359;619;619;619;0;0;3550;29;M
1;18;t36;38;1;4;G_longA;G;long;Omtrent klokken ni i kveld*synger*Berit*karaoke*p? puben.;y;Synger Berit karaoke p? puben i kveld?;t;Right;1;Right;2420;4360;1;Omtrent klokken ni i kveld;A1;1;149;1071;1071;1071;0;0;3070;29;M
1;18;t36;38;1;4;G_longA;G;long;Omtrent klokken ni i kveld*synger*Berit*karaoke*p? puben.;y;Synger Berit karaoke p? puben i kveld?;t;Right;1;Right;2420;4360;2;synger;V;1;317;317;317;317;0;0;3070;29;M
1;18;t36;38;1;4;G_longA;G;long;Omtrent klokken ni i kveld*synger*Berit*karaoke*p? puben.;y;Synger Berit karaoke p? puben i kveld?;t;Right;1;Right;2420;4360;3;Berit;S;0;172;172;172;172;0;1;3070;29;M
1;18;t36;38;1;4;G_longA;G;long;Omtrent klokken ni i kveld*synger*Berit*karaoke*p? puben.;y;Synger Berit karaoke p? puben i kveld?;t;Right;1;Right;2420;4360;4;karaoke;O;1;205;363;363;363;0;0;3070;29;M
1;18;t36;38;1;4;G_longA;G;long;Omtrent klokken ni i kveld*synger*Berit*karaoke*p? puben.;y;Synger Berit karaoke p? puben i kveld?;t;Right;1;Right;2420;4360;5;på puben.;A2;1;335;1147;1319;1147;1;0;3070;29;M
1;19;t38;39;1;4;G_longA;G;long;Hver ettermiddag i februar*sm?rer*Trond*skiene sine*med voks.;n;no question;no answer;no answer;-1;-1;-1;3528;1;Hver ettermiddag i februar;A1;1;138;762;762;762;0;0;2295;29;M
1;19;t38;39;1;4;G_longA;G;long;Hver ettermiddag i februar*sm?rer*Trond*skiene sine*med voks.;n;no question;no answer;no answer;-1;-1;-1;3528;2;smører;V;1;283;283;283;283;0;0;2295;29;M
1;19;t38;39;1;4;G_longA;G;long;Hver ettermiddag i februar*sm?rer*Trond*skiene sine*med voks.;n;no question;no answer;no answer;-1;-1;-1;3528;3;Trond;S;.;.;.;.;0;.;1;2295;29;M
1;19;t38;39;1;4;G_longA;G;long;Hver ettermiddag i februar*sm?rer*Trond*skiene sine*med voks.;n;no question;no answer;no answer;-1;-1;-1;3528;4;skiene sine;O;1;271;271;271;751;0;0;2295;29;M
1;19;t38;39;1;4;G_longA;G;long;Hver ettermiddag i februar*sm?rer*Trond*skiene sine*med voks.;n;no question;no answer;no answer;-1;-1;-1;3528;5;med voks.;A2;1;175;175;979;499;1;0;2295;29;M
1;20;t25;44;1;3;UG_shortA;UG;short;I mars*pensjonistene*bes?ker*Botanisk hage*inne i byen.;y;Bes?ker pensjonistene en pub i mars?;f;Left;1;Left;2380;4667;1;I mars;A1;1;140;448;448;706;0;0;3400;29;M
1;20;t25;44;1;3;UG_shortA;UG;short;I mars*pensjonistene*bes?ker*Botanisk hage*inne i byen.;y;Bes?ker pensjonistene en pub i mars?;f;Left;1;Left;2380;4667;2;pensjonistene;S;1;195;195;195;768;0;0;3400;29;M
1;20;t25;44;1;3;UG_shortA;UG;short;I mars*pensjonistene*bes?ker*Botanisk hage*inne i byen.;y;Bes?ker pensjonistene en pub i mars?;f;Left;1;Left;2380;4667;3;besøker;V;1;327;327;990;698;1;0;3400;29;M
1;20;t25;44;1;3;UG_shortA;UG;short;I mars*pensjonistene*bes?ker*Botanisk hage*inne i byen.;y;Bes?ker pensjonistene en pub i mars?;f;Left;1;Left;2380;4667;4;Botanisk hage;O;1;294;294;294;294;0;0;3400;29;M
1;20;t25;44;1;3;UG_shortA;UG;short;I mars*pensjonistene*bes?ker*Botanisk hage*inne i byen.;y;Bes?ker pensjonistene en pub i mars?;f;Left;1;Left;2380;4667;5;inne i byen.;A2;1;295;659;1473;934;1;0;3400;29;M
1;21;t21;45;1;3;G_shortA;G;short;I april*leser*bestemor*ukeblader*i hagestuen.;n;no question;no answer;no answer;-1;-1;-1;4169;1;I april;A1;1;140;538;538;696;0;0;3075;29;M
1;21;t21;45;1;3;G_shortA;G;short;I april*leser*bestemor*ukeblader*i hagestuen.;n;no question;no answer;no answer;-1;-1;-1;4169;2;leser;V;1;191;392;392;605;0;0;3075;29;M
1;21;t21;45;1;3;G_shortA;G;short;I april*leser*bestemor*ukeblader*i hagestuen.;n;no question;no answer;no answer;-1;-1;-1;4169;3;bestemor;S;1;262;262;633;262;1;0;3075;29;M
1;21;t21;45;1;3;G_shortA;G;short;I april*leser*bestemor*ukeblader*i hagestuen.;n;no question;no answer;no answer;-1;-1;-1;4169;4;ukeblader;O;1;331;331;331;331;0;0;3075;29;M
1;21;t21;45;1;3;G_shortA;G;short;I april*leser*bestemor*ukeblader*i hagestuen.;n;no question;no answer;no answer;-1;-1;-1;4169;5;i hagestuen.;A2;1;423;1181;1181;1181;0;0;3075;29;M
1;22;t22;46;1;3;G_shortA;G;short;F?r p?ske*maler*barna*p?skeegg*i barnehagen.;y;Maler barna p?skeegg i barnehagen?;t;Right;1;Right;2680;4811;1;Før påske;A1;1;337;488;488;1027;0;0;3679;29;M
1;22;t22;46;1;3;G_shortA;G;short;F?r p?ske*maler*barna*p?skeegg*i barnehagen.;y;Maler barna p?skeegg i barnehagen?;t;Right;1;Right;2680;4811;2;maler;V;1;594;594;594;788;0;0;3679;29;M
1;22;t22;46;1;3;G_shortA;G;short;F?r p?ske*maler*barna*p?skeegg*i barnehagen.;y;Maler barna p?skeegg i barnehagen?;t;Right;1;Right;2680;4811;3;barna;S;0;204;204;204;204;0;1;3679;29;M
1;22;t22;46;1;3;G_shortA;G;short;F?r p?ske*maler*barna*p?skeegg*i barnehagen.;y;Maler barna p?skeegg i barnehagen?;t;Right;1;Right;2680;4811;4;påskeegg;O;1;237;237;767;915;1;0;3679;29;M
1;22;t22;46;1;3;G_shortA;G;short;F?r p?ske*maler*barna*p?skeegg*i barnehagen.;y;Maler barna p?skeegg i barnehagen?;t;Right;1;Right;2680;4811;5;i barnehagen.;A2;1;483;483;1830;745;1;0;3679;29;M
1;23;t24;47;1;3;UG_shortA;UG;short;I ferien*Helge*bygger*terrasse*i hagen.;n;no question;no answer;no answer;-1;-1;-1;3269;1;I ferien;A1;1;183;183;183;571;0;0;2088;29;M
1;23;t24;47;1;3;UG_shortA;UG;short;I ferien*Helge*bygger*terrasse*i hagen.;n;no question;no answer;no answer;-1;-1;-1;3269;2;Helge;S;1;203;380;768;380;1;0;2088;29;M
1;23;t24;47;1;3;UG_shortA;UG;short;I ferien*Helge*bygger*terrasse*i hagen.;n;no question;no answer;no answer;-1;-1;-1;3269;3;bygger;V;1;274;274;274;274;0;0;2088;29;M
1;23;t24;47;1;3;UG_shortA;UG;short;I ferien*Helge*bygger*terrasse*i hagen.;n;no question;no answer;no answer;-1;-1;-1;3269;4;terrasse;O;1;250;250;250;481;0;0;2088;29;M
1;23;t24;47;1;3;UG_shortA;UG;short;I ferien*Helge*bygger*terrasse*i hagen.;n;no question;no answer;no answer;-1;-1;-1;3269;5;i hagen.;A2;1;382;382;613;382;1;0;2088;29;M
1;24;t26;48;1;3;G_longA;G;long;P? sene ettermiddager om v?ren*f?der*kattene*ungene sine*ute i stallen.;n;no question;no answer;no answer;-1;-1;-1;5370;1;På sene ettermiddager om våren;A1;1;263;1052;1052;1612;0;0;3523;29;M
1;24;t26;48;1;3;G_longA;G;long;P? sene ettermiddager om v?ren*f?der*kattene*ungene sine*ute i stallen.;n;no question;no answer;no answer;-1;-1;-1;5370;2;føder;V;1;161;396;396;396;0;0;3523;29;M
1;24;t26;48;1;3;G_longA;G;long;P? sene ettermiddager om v?ren*f?der*kattene*ungene sine*ute i stallen.;n;no question;no answer;no answer;-1;-1;-1;5370;3;kattene;S;1;197;197;197;197;0;0;3523;29;M
1;24;t26;48;1;3;G_longA;G;long;P? sene ettermiddager om v?ren*f?der*kattene*ungene sine*ute i stallen.;n;no question;no answer;no answer;-1;-1;-1;5370;4;ungene sine;O;1;209;601;601;601;0;0;3523;29;M
1;24;t26;48;1;3;G_longA;G;long;P? sene ettermiddager om v?ren*f?der*kattene*ungene sine*ute i stallen.;n;no question;no answer;no answer;-1;-1;-1;5370;5;ute i stallen.;A2;1;717;717;1277;717;1;0;3523;29;M
1;25;t23;52;1;3;G_shortA;G;short;Hver uke*vasker*gutten*sykkelen*med s?pevann.;n;no question;no answer;no answer;-1;-1;-1;3610;1;Hver uke;A1;1;188;406;406;795;0;0;2472;29;M
1;25;t23;52;1;3;G_shortA;G;short;Hver uke*vasker*gutten*sykkelen*med s?pevann.;n;no question;no answer;no answer;-1;-1;-1;3610;2;vasker;V;1;175;316;316;316;0;0;2472;29;M
1;25;t23;52;1;3;G_shortA;G;short;Hver uke*vasker*gutten*sykkelen*med s?pevann.;n;no question;no answer;no answer;-1;-1;-1;3610;3;gutten;S;1;203;203;203;203;0;0;2472;29;M
1;25;t23;52;1;3;G_shortA;G;short;Hver uke*vasker*gutten*sykkelen*med s?pevann.;n;no question;no answer;no answer;-1;-1;-1;3610;4;sykkelen;O;1;180;180;180;180;0;0;2472;29;M
1;25;t23;52;1;3;G_shortA;G;short;Hver uke*vasker*gutten*sykkelen*med s?pevann.;n;no question;no answer;no answer;-1;-1;-1;3610;5;med såpevann.;A2;1;668;978;1367;978;1;0;2472;29;M
1;26;t27;53;1;3;G_longA;G;long;I oddetallsuker i totiden*henter*Astrid*tvillingene*p? skolen.;y;Henter Astrid tvillingene klokken fem i oddetallsuker?;f;Left;1;Left;3029;4939;1;I oddetallsuker i totiden;A1;1;235;931;931;1268;0;0;3580;29;M
1;26;t27;53;1;3;G_longA;G;long;I oddetallsuker i totiden*henter*Astrid*tvillingene*p? skolen.;y;Henter Astrid tvillingene klokken fem i oddetallsuker?;f;Left;1;Left;3029;4939;2;henter;V;1;241;549;1236;1223;1;0;3580;29;M
1;26;t27;53;1;3;G_longA;G;long;I oddetallsuker i totiden*henter*Astrid*tvillingene*p? skolen.;y;Henter Astrid tvillingene klokken fem i oddetallsuker?;f;Left;1;Left;3029;4939;3;Astrid;S;.;.;.;.;0;.;1;3580;29;M
1;26;t27;53;1;3;G_longA;G;long;I oddetallsuker i totiden*henter*Astrid*tvillingene*p? skolen.;y;Henter Astrid tvillingene klokken fem i oddetallsuker?;f;Left;1;Left;3029;4939;4;tvillingene;O;1;340;340;880;556;1;0;3580;29;M
1;26;t27;53;1;3;G_longA;G;long;I oddetallsuker i totiden*henter*Astrid*tvillingene*p? skolen.;y;Henter Astrid tvillingene klokken fem i oddetallsuker?;f;Left;1;Left;3029;4939;5;på skolen.;A2;1;533;533;533;533;0;0;3580;29;M
1;27;t29;55;1;3;UG_longA;UG;long;P? sensommerdager i august*Eirik*selger*blomster*p? torget.;y;Selger Eirik blomster i august?;t;Right;1;Right;1828;3940;1;På sensommerdager i august;A1;1;239;766;766;1093;0;0;2453;29;M
1;27;t29;55;1;3;UG_longA;UG;long;P? sensommerdager i august*Eirik*selger*blomster*p? torget.;y;Selger Eirik blomster i august?;t;Right;1;Right;1828;3940;2;Eirik;S;1;246;246;246;246;0;0;2453;29;M
1;27;t29;55;1;3;UG_longA;UG;long;P? sensommerdager i august*Eirik*selger*blomster*p? torget.;y;Selger Eirik blomster i august?;t;Right;1;Right;1828;3940;3;selger;V;1;174;310;310;310;0;0;2453;29;M
1;27;t29;55;1;3;UG_longA;UG;long;P? sensommerdager i august*Eirik*selger*blomster*p? torget.;y;Selger Eirik blomster i august?;t;Right;1;Right;1828;3940;4;blomster;O;1;179;179;179;179;0;0;2453;29;M
1;27;t29;55;1;3;UG_longA;UG;long;P? sensommerdager i august*Eirik*selger*blomster*p? torget.;y;Selger Eirik blomster i august?;t;Right;1;Right;1828;3940;5;på torget.;A2;1;625;625;952;625;1;0;2453;29;M
1;28;t30;58;1;3;UG_longA;UG;long;Etter klokken ni hver kveld*restauranten*tilbyr*middag*til knallpriser.;n;no question;no answer;no answer;-1;-1;-1;3709;1;Etter klokken ni hver kveld;A1;1;200;923;923;1022;0;0;2466;29;M
1;28;t30;58;1;3;UG_longA;UG;long;Etter klokken ni hver kveld*restauranten*tilbyr*middag*til knallpriser.;n;no question;no answer;no answer;-1;-1;-1;3709;2;restauranten;S;1;323;323;422;323;1;0;2466;29;M
1;28;t30;58;1;3;UG_longA;UG;long;Etter klokken ni hver kveld*restauranten*tilbyr*middag*til knallpriser.;n;no question;no answer;no answer;-1;-1;-1;3709;3;tilbyr;V;1;312;312;312;312;0;0;2466;29;M
1;28;t30;58;1;3;UG_longA;UG;long;Etter klokken ni hver kveld*restauranten*tilbyr*middag*til knallpriser.;n;no question;no answer;no answer;-1;-1;-1;3709;4;middag;O;0;497;497;497;497;0;1;2466;29;M
1;28;t30;58;1;3;UG_longA;UG;long;Etter klokken ni hver kveld*restauranten*tilbyr*middag*til knallpriser.;n;no question;no answer;no answer;-1;-1;-1;3709;5;til knallpriser.;A2;1;312;312;809;312;1;0;2466;29;M
1;29;t28;60;1;3;UG_longA;UG;long;P? alle hverdager i november*Helene*strikker*str?mper*p? bussen.;n;no question;no answer;no answer;-1;-1;-1;5118;1;På alle hverdager i november;A1;1;192;909;909;1744;0;0;3695;29;M
1;29;t28;60;1;3;UG_longA;UG;long;P? alle hverdager i november*Helene*strikker*str?mper*p? bussen.;n;no question;no answer;no answer;-1;-1;-1;5118;2;Helene;S;1;232;232;232;232;0;0;3695;29;M
1;29;t28;60;1;3;UG_longA;UG;long;P? alle hverdager i november*Helene*strikker*str?mper*p? bussen.;n;no question;no answer;no answer;-1;-1;-1;5118;3;strikker;V;1;216;216;216;799;0;0;3695;29;M
1;29;t28;60;1;3;UG_longA;UG;long;P? alle hverdager i november*Helene*strikker*str?mper*p? bussen.;n;no question;no answer;no answer;-1;-1;-1;5118;4;strømper;O;1;269;269;269;752;0;0;3695;29;M
1;29;t28;60;1;3;UG_longA;UG;long;P? alle hverdager i november*Helene*strikker*str?mper*p? bussen.;n;no question;no answer;no answer;-1;-1;-1;5118;5;på bussen.;A2;1;168;168;2069;168;1;0;3695;29;M
1;30;t18;63;1;2;G_longA;G;long;Klokken halv sju p? tirsdager*tilbyr*biblioteket*h?ytlesning*for barn og unge.;n;no question;no answer;no answer;-1;-1;-1;3270;1;Klokken halv sju på tirsdager;A1;1;185;830;830;830;0;0;2288;29;M
1;30;t18;63;1;2;G_longA;G;long;Klokken halv sju p? tirsdager*tilbyr*biblioteket*h?ytlesning*for barn og unge.;n;no question;no answer;no answer;-1;-1;-1;3270;2;tilbyr;V;.;.;.;.;0;.;1;2288;29;M
1;30;t18;63;1;2;G_longA;G;long;Klokken halv sju p? tirsdager*tilbyr*biblioteket*h?ytlesning*for barn og unge.;n;no question;no answer;no answer;-1;-1;-1;3270;3;biblioteket;S;1;269;496;496;496;0;0;2288;29;M
1;30;t18;63;1;2;G_longA;G;long;Klokken halv sju p? tirsdager*tilbyr*biblioteket*h?ytlesning*for barn og unge.;n;no question;no answer;no answer;-1;-1;-1;3270;4;høytlesning;O;1;285;285;285;285;0;0;2288;29;M
1;30;t18;63;1;2;G_longA;G;long;Klokken halv sju p? tirsdager*tilbyr*biblioteket*h?ytlesning*for barn og unge.;n;no question;no answer;no answer;-1;-1;-1;3270;5;for barn og unge.;A2;1;308;677;677;677;0;0;2288;29;M
1;31;t16;65;1;2;G_longA;G;long;Hver onsdag kveld om h?sten*danser*Svein*folkedans*til tradisjonell musikk.;y;Danser Svein folkedans om h?sten?;t;Right;1;Right;2447;3985;1;Hver onsdag kveld om høsten;A1;1;197;1067;1067;1067;0;0;2692;29;M
1;31;t16;65;1;2;G_longA;G;long;Hver onsdag kveld om h?sten*danser*Svein*folkedans*til tradisjonell musikk.;y;Danser Svein folkedans om h?sten?;t;Right;1;Right;2447;3985;2;danser;V;1;271;271;271;482;0;0;2692;29;M
1;31;t16;65;1;2;G_longA;G;long;Hver onsdag kveld om h?sten*danser*Svein*folkedans*til tradisjonell musikk.;y;Danser Svein folkedans om h?sten?;t;Right;1;Right;2447;3985;3;Svein;S;.;.;.;.;0;.;1;2692;29;M
1;31;t16;65;1;2;G_longA;G;long;Hver onsdag kveld om h?sten*danser*Svein*folkedans*til tradisjonell musikk.;y;Danser Svein folkedans om h?sten?;t;Right;1;Right;2447;3985;4;folkedans;O;1;220;220;833;622;1;0;2692;29;M
1;31;t16;65;1;2;G_longA;G;long;Hver onsdag kveld om h?sten*danser*Svein*folkedans*til tradisjonell musikk.;y;Danser Svein folkedans om h?sten?;t;Right;1;Right;2447;3985;5;til tradisjonell musikk.;A2;1;214;521;521;521;0;0;2692;29;M
1;32;t19;66;1;2;UG_longA;UG;long;P? nesten alle kvelder f?r jul*Kristin*strikker*gensere*til hele familien.;y;Hekler Kristin vesker til familien?;f;Left;1;Left;2543;5604;1;På nesten alle kvelder før jul;A1;1;108;1360;1360;2407;0;0;4011;29;M
1;32;t19;66;1;2;UG_longA;UG;long;P? nesten alle kvelder f?r jul*Kristin*strikker*gensere*til hele familien.;y;Hekler Kristin vesker til familien?;f;Left;1;Left;2543;5604;2;Kristin;S;1;223;403;403;403;0;0;4011;29;M
1;32;t19;66;1;2;UG_longA;UG;long;P? nesten alle kvelder f?r jul*Kristin*strikker*gensere*til hele familien.;y;Hekler Kristin vesker til familien?;f;Left;1;Left;2543;5604;3;strikker;V;1;340;340;340;340;0;0;4011;29;M
1;32;t19;66;1;2;UG_longA;UG;long;P? nesten alle kvelder f?r jul*Kristin*strikker*gensere*til hele familien.;y;Hekler Kristin vesker til familien?;f;Left;1;Left;2543;5604;4;gensere;O;1;287;494;494;494;0;0;4011;29;M
1;32;t19;66;1;2;UG_longA;UG;long;P? nesten alle kvelder f?r jul*Kristin*strikker*gensere*til hele familien.;y;Hekler Kristin vesker til familien?;f;Left;1;Left;2543;5604;5;til hele familien.;A2;1;367;367;1414;367;1;0;4011;29;M
1;33;t12;67;1;2;G_shortA;G;short;I januar*renser*damen*teppene sine*i sn?en.;n;no question;no answer;no answer;-1;-1;-1;6675;1;I januar;A1;1;195;195;195;622;0;0;4491;29;M
1;33;t12;67;1;2;G_shortA;G;short;I januar*renser*damen*teppene sine*i sn?en.;n;no question;no answer;no answer;-1;-1;-1;6675;2;renser;V;1;409;409;409;1088;0;0;4491;29;M
1;33;t12;67;1;2;G_shortA;G;short;I januar*renser*damen*teppene sine*i sn?en.;n;no question;no answer;no answer;-1;-1;-1;6675;3;damen;S;1;195;539;539;839;0;0;4491;29;M
1;33;t12;67;1;2;G_shortA;G;short;I januar*renser*damen*teppene sine*i sn?en.;n;no question;no answer;no answer;-1;-1;-1;6675;4;teppene sine;O;1;226;226;226;608;0;0;4491;29;M
1;33;t12;67;1;2;G_shortA;G;short;I januar*renser*damen*teppene sine*i sn?en.;n;no question;no answer;no answer;-1;-1;-1;6675;5;i snøen.;A2;1;440;440;3122;1334;1;0;4491;29;M
1;34;t20;69;1;2;UG_longA;UG;long;Hver mandag kveld klokken seks*H?kon*lager*middag*til kollektivet sitt.;n;no question;no answer;no answer;-1;-1;-1;4991;1;Hver mandag kveld klokken seks;A1;1;161;1310;1310;1689;0;0;3806;29;M
1;34;t20;69;1;2;UG_longA;UG;long;Hver mandag kveld klokken seks*H?kon*lager*middag*til kollektivet sitt.;n;no question;no answer;no answer;-1;-1;-1;4991;2;Håkon;S;0;138;138;138;286;0;1;3806;29;M
1;34;t20;69;1;2;UG_longA;UG;long;Hver mandag kveld klokken seks*H?kon*lager*middag*til kollektivet sitt.;n;no question;no answer;no answer;-1;-1;-1;4991;3;lager;V;1;217;395;395;614;0;0;3806;29;M
1;34;t20;69;1;2;UG_longA;UG;long;Hver mandag kveld klokken seks*H?kon*lager*middag*til kollektivet sitt.;n;no question;no answer;no answer;-1;-1;-1;4991;4;middag;O;0;263;263;620;489;0;1;3806;29;M
1;34;t20;69;1;2;UG_longA;UG;long;Hver mandag kveld klokken seks*H?kon*lager*middag*til kollektivet sitt.;n;no question;no answer;no answer;-1;-1;-1;4991;5;til kollektivet sitt.;A2;1;231;231;2101;728;1;0;3806;29;M
1;35;t11;73;1;2;G_shortA;G;short;Om kvelden*skriver*stores?ster*dagbok*p? soverommet.;n;no question;no answer;no answer;-1;-1;-1;3943;1;Om kvelden;A1;1;135;348;348;639;0;0;2851;29;M
1;35;t11;73;1;2;G_shortA;G;short;Om kvelden*skriver*stores?ster*dagbok*p? soverommet.;n;no question;no answer;no answer;-1;-1;-1;3943;2;skriver;V;1;226;226;226;443;0;0;2851;29;M
1;35;t11;73;1;2;G_shortA;G;short;Om kvelden*skriver*stores?ster*dagbok*p? soverommet.;n;no question;no answer;no answer;-1;-1;-1;3943;3;storesøster;S;1;173;173;390;612;1;0;2851;29;M
1;35;t11;73;1;2;G_shortA;G;short;Om kvelden*skriver*stores?ster*dagbok*p? soverommet.;n;no question;no answer;no answer;-1;-1;-1;3943;4;dagbok;O;1;248;248;248;444;0;0;2851;29;M
1;35;t11;73;1;2;G_shortA;G;short;Om kvelden*skriver*stores?ster*dagbok*p? soverommet.;n;no question;no answer;no answer;-1;-1;-1;3943;5;på soverommet.;A2;1;404;404;1639;713;1;0;2851;29;M
1;36;t13;74;1;2;UG_shortA;UG;short;P? mandager*Harald*vasker*sokker*i vaskemaskinen.;y;Vasker Harald p? mandager?;t;Right;1;Right;1672;2788;1;På mandager;A1;1;241;736;736;736;0;0;1904;29;M
1;36;t13;74;1;2;UG_shortA;UG;short;P? mandager*Harald*vasker*sokker*i vaskemaskinen.;y;Vasker Harald p? mandager?;t;Right;1;Right;1672;2788;2;Harald;S;1;143;143;143;143;0;0;1904;29;M
1;36;t13;74;1;2;UG_shortA;UG;short;P? mandager*Harald*vasker*sokker*i vaskemaskinen.;y;Vasker Harald p? mandager?;t;Right;1;Right;1672;2788;3;vasker;V;1;197;197;197;197;0;0;1904;29;M
1;36;t13;74;1;2;UG_shortA;UG;short;P? mandager*Harald*vasker*sokker*i vaskemaskinen.;y;Vasker Harald p? mandager?;t;Right;1;Right;1672;2788;4;sokker;O;1;207;207;207;207;0;0;1904;29;M
1;36;t13;74;1;2;UG_shortA;UG;short;P? mandager*Harald*vasker*sokker*i vaskemaskinen.;y;Vasker Harald p? mandager?;t;Right;1;Right;1672;2788;5;i vaskemaskinen.;A2;1;396;621;621;621;0;0;1904;29;M
1;37;t17;75;1;2;G_longA;G;long;Rett f?r daggry en julidag*f?der*hesten*et f?ll*p? gresset.;n;no question;no answer;no answer;-1;-1;-1;5895;1;Rett før daggry en julidag;A1;1;196;1116;1116;2036;0;0;4511;29;M
1;37;t17;75;1;2;G_longA;G;long;Rett f?r daggry en julidag*f?der*hesten*et f?ll*p? gresset.;n;no question;no answer;no answer;-1;-1;-1;5895;2;føder;V;1;252;252;252;412;0;0;4511;29;M
1;37;t17;75;1;2;G_longA;G;long;Rett f?r daggry en julidag*f?der*hesten*et f?ll*p? gresset.;n;no question;no answer;no answer;-1;-1;-1;5895;3;hesten;S;1;201;201;201;522;0;0;4511;29;M
1;37;t17;75;1;2;G_longA;G;long;Rett f?r daggry en julidag*f?der*hesten*et f?ll*p? gresset.;n;no question;no answer;no answer;-1;-1;-1;5895;4;et føll;O;1;134;336;336;726;0;0;4511;29;M
1;37;t17;75;1;2;G_longA;G;long;Rett f?r daggry en julidag*f?der*hesten*et f?ll*p? gresset.;n;no question;no answer;no answer;-1;-1;-1;5895;5;på gresset.;A2;1;440;440;2606;815;1;0;4511;29;M
1;38;t14;76;1;2;UG_shortA;UG;short;Den 17. mai*Gunnar*feirer*nasjonaldagen*i Trondheim.;n;no question;no answer;no answer;-1;-1;-1;3588;1;Den 17. mai;A1;1;159;278;278;584;0;0;2314;29;M
1;38;t14;76;1;2;UG_shortA;UG;short;Den 17. mai*Gunnar*feirer*nasjonaldagen*i Trondheim.;n;no question;no answer;no answer;-1;-1;-1;3588;2;Gunnar;S;1;428;428;428;428;0;0;2314;29;M
1;38;t14;76;1;2;UG_shortA;UG;short;Den 17. mai*Gunnar*feirer*nasjonaldagen*i Trondheim.;n;no question;no answer;no answer;-1;-1;-1;3588;3;feirer;V;1;167;167;167;375;0;0;2314;29;M
1;38;t14;76;1;2;UG_shortA;UG;short;Den 17. mai*Gunnar*feirer*nasjonaldagen*i Trondheim.;n;no question;no answer;no answer;-1;-1;-1;3588;4;nasjonaldagen;O;1;185;185;606;643;1;0;2314;29;M
1;38;t14;76;1;2;UG_shortA;UG;short;Den 17. mai*Gunnar*feirer*nasjonaldagen*i Trondheim.;n;no question;no answer;no answer;-1;-1;-1;3588;5;i Trondheim.;A2;1;284;284;835;284;1;0;2314;29;M
1;39;t15;82;1;2;UG_shortA;UG;short;Om vinteren*Anders*bygger*sn?mann*p? jordet.;n;no question;no answer;no answer;-1;-1;-1;4286;1;Om vinteren;A1;1;247;247;247;614;0;0;3108;29;M
1;39;t15;82;1;2;UG_shortA;UG;short;Om vinteren*Anders*bygger*sn?mann*p? jordet.;n;no question;no answer;no answer;-1;-1;-1;4286;2;Anders;S;1;212;212;212;381;0;0;3108;29;M
1;39;t15;82;1;2;UG_shortA;UG;short;Om vinteren*Anders*bygger*sn?mann*p? jordet.;n;no question;no answer;no answer;-1;-1;-1;4286;3;bygger;V;1;400;400;400;885;0;0;3108;29;M
1;39;t15;82;1;2;UG_shortA;UG;short;Om vinteren*Anders*bygger*sn?mann*p? jordet.;n;no question;no answer;no answer;-1;-1;-1;4286;4;snømann;O;1;278;278;465;411;1;0;3108;29;M
1;39;t15;82;1;2;UG_shortA;UG;short;Om vinteren*Anders*bygger*sn?mann*p? jordet.;n;no question;no answer;no answer;-1;-1;-1;4286;5;på jordet.;A2;1;147;657;1784;817;1;0;3108;29;M
10;1;t11;3;2;2;UG_shortA;UG;short;Om kvelden*stores?ster*skriver*dagbok*p? soverommet.;n;no question;no answer;no answer;-1;-1;-1;3630;1;Om kvelden;A1;0;453;453;453;581;0;1;2643;26;M
10;1;t11;3;2;2;UG_shortA;UG;short;Om kvelden*stores?ster*skriver*dagbok*p? soverommet.;n;no question;no answer;no answer;-1;-1;-1;3630;2;storesøster;S;0;754;754;1165;1037;0;1;2643;26;M
10;1;t11;3;2;2;UG_shortA;UG;short;Om kvelden*stores?ster*skriver*dagbok*p? soverommet.;n;no question;no answer;no answer;-1;-1;-1;3630;3;skriver;V;1;192;192;2047;429;1;0;2643;26;M
10;1;t11;3;2;2;UG_shortA;UG;short;Om kvelden*stores?ster*skriver*dagbok*p? soverommet.;n;no question;no answer;no answer;-1;-1;-1;3630;4;dagbok;O;.;.;.;.;0;.;1;2643;26;M
10;1;t11;3;2;2;UG_shortA;UG;short;Om kvelden*stores?ster*skriver*dagbok*p? soverommet.;n;no question;no answer;no answer;-1;-1;-1;3630;5;på soverommet.;A2;1;390;596;596;596;0;0;2643;26;M
10;2;t12;4;2;2;UG_shortA;UG;short;I januar*damen*renser*teppene sine*i sn?en.;n;no question;no answer;no answer;-1;-1;-1;3718;1;I januar;A1;1;188;188;188;188;0;0;2572;26;M
10;2;t12;4;2;2;UG_shortA;UG;short;I januar*damen*renser*teppene sine*i sn?en.;n;no question;no answer;no answer;-1;-1;-1;3718;2;damen;S;0;438;438;438;438;0;1;2572;26;M
10;2;t12;4;2;2;UG_shortA;UG;short;I januar*damen*renser*teppene sine*i sn?en.;n;no question;no answer;no answer;-1;-1;-1;3718;3;renser;V;1;431;522;1226;788;1;0;2572;26;M
10;2;t12;4;2;2;UG_shortA;UG;short;I januar*damen*renser*teppene sine*i sn?en.;n;no question;no answer;no answer;-1;-1;-1;3718;4;teppene sine;O;1;360;569;569;569;0;0;2572;26;M
10;2;t12;4;2;2;UG_shortA;UG;short;I januar*damen*renser*teppene sine*i sn?en.;n;no question;no answer;no answer;-1;-1;-1;3718;5;i snøen.;A2;1;350;589;589;589;0;0;2572;26;M
10;3;t19;9;2;2;G_longA;G;long;P? nesten alle kvelder f?r jul*strikker*Kristin*gensere*til hele familien.;y;Hekler Kristin vesker til familien?;f;Left;1;Left;2644;4430;1;På nesten alle kvelder før jul;A1;1;161;1146;1146;1146;0;0;3346;26;M
10;3;t19;9;2;2;G_longA;G;long;P? nesten alle kvelder f?r jul*strikker*Kristin*gensere*til hele familien.;y;Hekler Kristin vesker til familien?;f;Left;1;Left;2644;4430;2;strikker;V;1;228;228;228;228;0;0;3346;26;M
10;3;t19;9;2;2;G_longA;G;long;P? nesten alle kvelder f?r jul*strikker*Kristin*gensere*til hele familien.;y;Hekler Kristin vesker til familien?;f;Left;1;Left;2644;4430;3;Kristin;S;1;366;366;366;366;0;0;3346;26;M
10;3;t19;9;2;2;G_longA;G;long;P? nesten alle kvelder f?r jul*strikker*Kristin*gensere*til hele familien.;y;Hekler Kristin vesker til familien?;f;Left;1;Left;2644;4430;4;gensere;O;1;311;311;311;728;0;0;3346;26;M
10;3;t19;9;2;2;G_longA;G;long;P? nesten alle kvelder f?r jul*strikker*Kristin*gensere*til hele familien.;y;Hekler Kristin vesker til familien?;f;Left;1;Left;2644;4430;5;til hele familien.;A2;1;203;203;1295;878;1;0;3346;26;M
10;4;t18;10;2;2;UG_longA;UG;long;Klokken halv sju p? tirsdager*biblioteket*tilbyr*h?ytlesning*for barn og unge.;n;no question;no answer;no answer;-1;-1;-1;4105;1;Klokken halv sju på tirsdager;A1;1;175;1286;1286;1286;0;0;2733;26;M
10;4;t18;10;2;2;UG_longA;UG;long;Klokken halv sju p? tirsdager*biblioteket*tilbyr*h?ytlesning*for barn og unge.;n;no question;no answer;no answer;-1;-1;-1;4105;2;biblioteket;S;1;294;294;294;294;0;0;2733;26;M
10;4;t18;10;2;2;UG_longA;UG;long;Klokken halv sju p? tirsdager*biblioteket*tilbyr*h?ytlesning*for barn og unge.;n;no question;no answer;no answer;-1;-1;-1;4105;3;tilbyr;V;1;327;327;327;327;0;0;2733;26;M
10;4;t18;10;2;2;UG_longA;UG;long;Klokken halv sju p? tirsdager*biblioteket*tilbyr*h?ytlesning*for barn og unge.;n;no question;no answer;no answer;-1;-1;-1;4105;4;høytlesning;O;1;462;462;462;462;0;0;2733;26;M
10;4;t18;10;2;2;UG_longA;UG;long;Klokken halv sju p? tirsdager*biblioteket*tilbyr*h?ytlesning*for barn og unge.;n;no question;no answer;no answer;-1;-1;-1;4105;5;for barn og unge.;A2;1;364;364;364;364;0;0;2733;26;M
10;5;t20;11;2;2;G_longA;G;long;Hver mandag kveld klokken seks*lager*H?kon*middag*til kollektivet sitt.;n;no question;no answer;no answer;-1;-1;-1;3786;1;Hver mandag kveld klokken seks;A1;1;151;914;914;914;0;0;2504;26;M
10;5;t20;11;2;2;G_longA;G;long;Hver mandag kveld klokken seks*lager*H?kon*middag*til kollektivet sitt.;n;no question;no answer;no answer;-1;-1;-1;3786;2;lager;V;1;234;234;234;234;0;0;2504;26;M
10;5;t20;11;2;2;G_longA;G;long;Hver mandag kveld klokken seks*lager*H?kon*middag*til kollektivet sitt.;n;no question;no answer;no answer;-1;-1;-1;3786;3;Håkon;S;1;164;164;164;164;0;0;2504;26;M
10;5;t20;11;2;2;G_longA;G;long;Hver mandag kveld klokken seks*lager*H?kon*middag*til kollektivet sitt.;n;no question;no answer;no answer;-1;-1;-1;3786;4;middag;O;1;206;206;206;372;0;0;2504;26;M
10;5;t20;11;2;2;G_longA;G;long;Hver mandag kveld klokken seks*lager*H?kon*middag*til kollektivet sitt.;n;no question;no answer;no answer;-1;-1;-1;3786;5;til kollektivet sitt.;A2;1;216;820;986;820;1;0;2504;26;M
10;6;t16;15;2;2;UG_longA;UG;long;Hver onsdag kveld om h?sten*Svein*danser*folkedans*til tradisjonell musikk.;y;Danser Svein folkedans om h?sten?;t;Right;1;Right;2434;4090;1;Hver onsdag kveld om høsten;A1;1;165;877;877;877;0;0;2871;26;M
10;6;t16;15;2;2;UG_longA;UG;long;Hver onsdag kveld om h?sten*Svein*danser*folkedans*til tradisjonell musikk.;y;Danser Svein folkedans om h?sten?;t;Right;1;Right;2434;4090;2;Svein;S;1;407;529;529;529;0;0;2871;26;M
10;6;t16;15;2;2;UG_longA;UG;long;Hver onsdag kveld om h?sten*Svein*danser*folkedans*til tradisjonell musikk.;y;Danser Svein folkedans om h?sten?;t;Right;1;Right;2434;4090;3;danser;V;1;251;251;251;251;0;0;2871;26;M
10;6;t16;15;2;2;UG_longA;UG;long;Hver onsdag kveld om h?sten*Svein*danser*folkedans*til tradisjonell musikk.;y;Danser Svein folkedans om h?sten?;t;Right;1;Right;2434;4090;4;folkedans;O;1;185;185;185;185;0;0;2871;26;M
10;6;t16;15;2;2;UG_longA;UG;long;Hver onsdag kveld om h?sten*Svein*danser*folkedans*til tradisjonell musikk.;y;Danser Svein folkedans om h?sten?;t;Right;1;Right;2434;4090;5;til tradisjonell musikk.;A2;1;334;1029;1029;1029;0;0;2871;26;M
10;7;t17;16;2;2;UG_longA;UG;long;Rett f?r daggry en julidag*hesten*f?der*et f?ll*p? gresset.;n;no question;no answer;no answer;-1;-1;-1;3929;1;Rett før daggry en julidag;A1;1;241;1112;1112;1112;0;0;2863;26;M
10;7;t17;16;2;2;UG_longA;UG;long;Rett f?r daggry en julidag*hesten*f?der*et f?ll*p? gresset.;n;no question;no answer;no answer;-1;-1;-1;3929;2;hesten;S;1;589;589;589;589;0;0;2863;26;M
10;7;t17;16;2;2;UG_longA;UG;long;Rett f?r daggry en julidag*hesten*f?der*et f?ll*p? gresset.;n;no question;no answer;no answer;-1;-1;-1;3929;3;føder;V;1;285;285;285;285;0;0;2863;26;M
10;7;t17;16;2;2;UG_longA;UG;long;Rett f?r daggry en julidag*hesten*f?der*et f?ll*p? gresset.;n;no question;no answer;no answer;-1;-1;-1;3929;4;et føll;O;1;351;351;351;351;0;0;2863;26;M
10;7;t17;16;2;2;UG_longA;UG;long;Rett f?r daggry en julidag*hesten*f?der*et f?ll*p? gresset.;n;no question;no answer;no answer;-1;-1;-1;3929;5;på gresset.;A2;1;334;526;526;526;0;0;2863;26;M
10;8;t15;18;2;2;G_shortA;G;short;Om vinteren*bygger*Anders*sn?mann*p? jordet.;n;no question;no answer;no answer;-1;-1;-1;3180;1;Om vinteren;A1;1;260;260;260;260;0;0;2076;26;M
10;8;t15;18;2;2;G_shortA;G;short;Om vinteren*bygger*Anders*sn?mann*p? jordet.;n;no question;no answer;no answer;-1;-1;-1;3180;2;bygger;V;1;252;252;252;252;0;0;2076;26;M
10;8;t15;18;2;2;G_shortA;G;short;Om vinteren*bygger*Anders*sn?mann*p? jordet.;n;no question;no answer;no answer;-1;-1;-1;3180;3;Anders;S;0;234;234;234;234;0;1;2076;26;M
10;8;t15;18;2;2;G_shortA;G;short;Om vinteren*bygger*Anders*sn?mann*p? jordet.;n;no question;no answer;no answer;-1;-1;-1;3180;4;snømann;O;1;274;274;890;656;1;0;2076;26;M
10;8;t15;18;2;2;G_shortA;G;short;Om vinteren*bygger*Anders*sn?mann*p? jordet.;n;no question;no answer;no answer;-1;-1;-1;3180;5;på jordet.;A2;1;298;674;674;674;0;0;2076;26;M
10;9;t13;19;2;2;G_shortA;G;short;P? mandager*vasker*Harald*sokker*i vaskemaskinen.;y;Vasker Harald p? mandager?;t;Right;1;Right;2150;4535;1;På mandager;A1;.;.;.;.;0;.;1;2986;26;M
10;9;t13;19;2;2;G_shortA;G;short;P? mandager*vasker*Harald*sokker*i vaskemaskinen.;y;Vasker Harald p? mandager?;t;Right;1;Right;2150;4535;2;vasker;V;1;178;485;485;485;0;0;2986;26;M
10;9;t13;19;2;2;G_shortA;G;short;P? mandager*vasker*Harald*sokker*i vaskemaskinen.;y;Vasker Harald p? mandager?;t;Right;1;Right;2150;4535;3;Harald;S;1;271;271;271;271;0;0;2986;26;M
10;9;t13;19;2;2;G_shortA;G;short;P? mandager*vasker*Harald*sokker*i vaskemaskinen.;y;Vasker Harald p? mandager?;t;Right;1;Right;2150;4535;4;sokker;O;1;272;272;272;672;0;0;2986;26;M
10;9;t13;19;2;2;G_shortA;G;short;P? mandager*vasker*Harald*sokker*i vaskemaskinen.;y;Vasker Harald p? mandager?;t;Right;1;Right;2150;4535;5;i vaskemaskinen.;A2;1;523;1223;1958;1558;1;0;2986;26;M
10;10;t14;20;2;2;G_shortA;G;short;Den 17. mai*feirer*Gunnar*nasjonaldagen*i Trondheim.;n;no question;no answer;no answer;-1;-1;-1;3553;1;Den 17. mai;A1;1;198;198;198;198;0;0;2199;26;M
10;10;t14;20;2;2;G_shortA;G;short;Den 17. mai*feirer*Gunnar*nasjonaldagen*i Trondheim.;n;no question;no answer;no answer;-1;-1;-1;3553;2;feirer;V;1;218;381;381;381;0;0;2199;26;M
10;10;t14;20;2;2;G_shortA;G;short;Den 17. mai*feirer*Gunnar*nasjonaldagen*i Trondheim.;n;no question;no answer;no answer;-1;-1;-1;3553;3;Gunnar;S;1;185;185;185;185;0;0;2199;26;M
10;10;t14;20;2;2;G_shortA;G;short;Den 17. mai*feirer*Gunnar*nasjonaldagen*i Trondheim.;n;no question;no answer;no answer;-1;-1;-1;3553;4;nasjonaldagen;O;1;274;1008;1008;1008;0;0;2199;26;M
10;10;t14;20;2;2;G_shortA;G;short;Den 17. mai*feirer*Gunnar*nasjonaldagen*i Trondheim.;n;no question;no answer;no answer;-1;-1;-1;3553;5;i Trondheim.;A2;1;427;427;427;427;0;0;2199;26;M
10;11;t32;25;2;4;UG_shortA;UG;short;Etter skolen*jenta*sender*meldinger*p? Snapchat.;n;no question;no answer;no answer;-1;-1;-1;3663;1;Etter skolen;A1;1;221;366;366;456;0;0;2261;26;M
10;11;t32;25;2;4;UG_shortA;UG;short;Etter skolen*jenta*sender*meldinger*p? Snapchat.;n;no question;no answer;no answer;-1;-1;-1;3663;2;jenta;S;1;207;207;207;385;0;0;2261;26;M
10;11;t32;25;2;4;UG_shortA;UG;short;Etter skolen*jenta*sender*meldinger*p? Snapchat.;n;no question;no answer;no answer;-1;-1;-1;3663;3;sender;V;1;395;395;395;395;0;0;2261;26;M
10;11;t32;25;2;4;UG_shortA;UG;short;Etter skolen*jenta*sender*meldinger*p? Snapchat.;n;no question;no answer;no answer;-1;-1;-1;3663;4;meldinger;O;1;447;447;447;447;0;0;2261;26;M
10;11;t32;25;2;4;UG_shortA;UG;short;Etter skolen*jenta*sender*meldinger*p? Snapchat.;n;no question;no answer;no answer;-1;-1;-1;3663;5;på Snapchat.;A2;1;578;578;846;578;1;0;2261;26;M
10;12;t39;26;2;4;G_longA;G;long;P? alle hverdager etter jobb*baker*Ingrid*rundstykker*p? kj?kkenet.;y;Baker Ingrid rundstykker etter jobb?;t;Right;1;Right;1898;4297;1;På alle hverdager etter jobb;A1;1;290;758;758;758;0;0;3153;26;M
10;12;t39;26;2;4;G_longA;G;long;P? alle hverdager etter jobb*baker*Ingrid*rundstykker*p? kj?kkenet.;y;Baker Ingrid rundstykker etter jobb?;t;Right;1;Right;1898;4297;2;baker;V;1;334;334;334;334;0;0;3153;26;M
10;12;t39;26;2;4;G_longA;G;long;P? alle hverdager etter jobb*baker*Ingrid*rundstykker*p? kj?kkenet.;y;Baker Ingrid rundstykker etter jobb?;t;Right;1;Right;1898;4297;3;Ingrid;S;1;235;235;235;235;0;0;3153;26;M
10;12;t39;26;2;4;G_longA;G;long;P? alle hverdager etter jobb*baker*Ingrid*rundstykker*p? kj?kkenet.;y;Baker Ingrid rundstykker etter jobb?;t;Right;1;Right;1898;4297;4;rundstykker;O;1;286;286;286;286;0;0;3153;26;M
10;12;t39;26;2;4;G_longA;G;long;P? alle hverdager etter jobb*baker*Ingrid*rundstykker*p? kj?kkenet.;y;Baker Ingrid rundstykker etter jobb?;t;Right;1;Right;1898;4297;5;på kjøkkenet.;A2;1;317;1540;1540;1540;0;0;3153;26;M
10;13;t33;27;2;4;G_shortA;G;short;P? fredager*kj?per*vennene*godteri*p? butikken.;y;Stjeler vennene godteri p? butikken?;f;Left;1;Left;1559;3891;1;På fredager;A1;1;376;376;376;982;0;0;2637;26;M
10;13;t33;27;2;4;G_shortA;G;short;P? fredager*kj?per*vennene*godteri*p? butikken.;y;Stjeler vennene godteri p? butikken?;f;Left;1;Left;1559;3891;2;kjøper;V;1;236;236;236;236;0;0;2637;26;M
10;13;t33;27;2;4;G_shortA;G;short;P? fredager*kj?per*vennene*godteri*p? butikken.;y;Stjeler vennene godteri p? butikken?;f;Left;1;Left;1559;3891;3;vennene;S;1;334;334;334;334;0;0;2637;26;M
10;13;t33;27;2;4;G_shortA;G;short;P? fredager*kj?per*vennene*godteri*p? butikken.;y;Stjeler vennene godteri p? butikken?;f;Left;1;Left;1559;3891;4;godteri;O;1;286;753;753;753;0;0;2637;26;M
10;13;t33;27;2;4;G_shortA;G;short;P? fredager*kj?per*vennene*godteri*p? butikken.;y;Stjeler vennene godteri p? butikken?;f;Left;1;Left;1559;3891;5;på butikken.;A2;1;192;332;938;332;1;0;2637;26;M
10;14;t35;29;2;4;G_shortA;G;short;F?r lunsj*spiser*sjefen*en kanelbolle*p? kontoret.;y;Spiser sjefen en kanelbolle i bilen f?r lunsj?;f;Left;1;Left;2082;3037;1;Før lunsj;A1;1;148;295;295;295;0;0;1965;26;M
10;14;t35;29;2;4;G_shortA;G;short;F?r lunsj*spiser*sjefen*en kanelbolle*p? kontoret.;y;Spiser sjefen en kanelbolle i bilen f?r lunsj?;f;Left;1;Left;2082;3037;2;spiser;V;1;163;163;163;163;0;0;1965;26;M
10;14;t35;29;2;4;G_shortA;G;short;F?r lunsj*spiser*sjefen*en kanelbolle*p? kontoret.;y;Spiser sjefen en kanelbolle i bilen f?r lunsj?;f;Left;1;Left;2082;3037;3;sjefen;S;.;.;.;.;0;.;1;1965;26;M
10;14;t35;29;2;4;G_shortA;G;short;F?r lunsj*spiser*sjefen*en kanelbolle*p? kontoret.;y;Spiser sjefen en kanelbolle i bilen f?r lunsj?;f;Left;1;Left;2082;3037;4;en kanelbolle;O;1;330;515;515;515;0;0;1965;26;M
10;14;t35;29;2;4;G_shortA;G;short;F?r lunsj*spiser*sjefen*en kanelbolle*p? kontoret.;y;Spiser sjefen en kanelbolle i bilen f?r lunsj?;f;Left;1;Left;2082;3037;5;på kontoret.;A2;1;344;992;992;992;0;0;1965;26;M
10;15;t38;30;2;4;UG_longA;UG;long;Hver ettermiddag i februar*Trond*sm?rer*skiene sine*med voks.;n;no question;no answer;no answer;-1;-1;-1;3619;1;Hver ettermiddag i februar;A1;1;154;869;869;869;0;0;2419;26;M
10;15;t38;30;2;4;UG_longA;UG;long;Hver ettermiddag i februar*Trond*sm?rer*skiene sine*med voks.;n;no question;no answer;no answer;-1;-1;-1;3619;2;Trond;S;.;.;.;.;0;.;1;2419;26;M
10;15;t38;30;2;4;UG_longA;UG;long;Hver ettermiddag i februar*Trond*sm?rer*skiene sine*med voks.;n;no question;no answer;no answer;-1;-1;-1;3619;3;smører;V;1;158;426;426;426;0;0;2419;26;M
10;15;t38;30;2;4;UG_longA;UG;long;Hver ettermiddag i februar*Trond*sm?rer*skiene sine*med voks.;n;no question;no answer;no answer;-1;-1;-1;3619;4;skiene sine;O;1;260;499;499;499;0;0;2419;26;M
10;15;t38;30;2;4;UG_longA;UG;long;Hver ettermiddag i februar*Trond*sm?rer*skiene sine*med voks.;n;no question;no answer;no answer;-1;-1;-1;3619;5;med voks.;A2;1;625;625;625;625;0;0;2419;26;M
10;16;t31;34;2;4;UG_shortA;UG;short;Neste ?r*Marius*skriver*avhandling*p? universitetet.;n;no question;no answer;no answer;-1;-1;-1;3056;1;Neste år;A1;1;224;224;224;224;0;0;2152;26;M
10;16;t31;34;2;4;UG_shortA;UG;short;Neste ?r*Marius*skriver*avhandling*p? universitetet.;n;no question;no answer;no answer;-1;-1;-1;3056;2;Marius;S;1;200;200;200;200;0;0;2152;26;M
10;16;t31;34;2;4;UG_shortA;UG;short;Neste ?r*Marius*skriver*avhandling*p? universitetet.;n;no question;no answer;no answer;-1;-1;-1;3056;3;skriver;V;1;150;332;332;332;0;0;2152;26;M
10;16;t31;34;2;4;UG_shortA;UG;short;Neste ?r*Marius*skriver*avhandling*p? universitetet.;n;no question;no answer;no answer;-1;-1;-1;3056;4;avhandling;O;1;291;291;291;291;0;0;2152;26;M
10;16;t31;34;2;4;UG_shortA;UG;short;Neste ?r*Marius*skriver*avhandling*p? universitetet.;n;no question;no answer;no answer;-1;-1;-1;3056;5;på universitetet.;A2;1;502;1105;1105;1105;0;0;2152;26;M
10;17;t34;35;2;4;G_shortA;G;short;I oktober*lager*Hilde*gresskarlykter*med datteren sin.;n;no question;no answer;no answer;-1;-1;-1;3201;1;I oktober;A1;1;189;189;189;189;0;0;2192;26;M
10;17;t34;35;2;4;G_shortA;G;short;I oktober*lager*Hilde*gresskarlykter*med datteren sin.;n;no question;no answer;no answer;-1;-1;-1;3201;2;lager;V;1;241;241;241;241;0;0;2192;26;M
10;17;t34;35;2;4;G_shortA;G;short;I oktober*lager*Hilde*gresskarlykter*med datteren sin.;n;no question;no answer;no answer;-1;-1;-1;3201;3;Hilde;S;1;176;176;176;176;0;0;2192;26;M
10;17;t34;35;2;4;G_shortA;G;short;I oktober*lager*Hilde*gresskarlykter*med datteren sin.;n;no question;no answer;no answer;-1;-1;-1;3201;4;gresskarlykter;O;1;204;665;665;665;0;0;2192;26;M
10;17;t34;35;2;4;G_shortA;G;short;I oktober*lager*Hilde*gresskarlykter*med datteren sin.;n;no question;no answer;no answer;-1;-1;-1;3201;5;med datteren sin.;A2;1;472;921;921;921;0;0;2192;26;M
10;18;t37;36;2;4;UG_longA;UG;long;I partallsuker om sommeren*Monica*selger*smykker*p? vikingmarkedet.;n;no question;no answer;no answer;-1;-1;-1;4982;1;I partallsuker om sommeren;A1;1;195;1248;1248;1248;0;0;3999;26;M
10;18;t37;36;2;4;UG_longA;UG;long;I partallsuker om sommeren*Monica*selger*smykker*p? vikingmarkedet.;n;no question;no answer;no answer;-1;-1;-1;4982;2;Monica;S;1;187;187;187;187;0;0;3999;26;M
10;18;t37;36;2;4;UG_longA;UG;long;I partallsuker om sommeren*Monica*selger*smykker*p? vikingmarkedet.;n;no question;no answer;no answer;-1;-1;-1;4982;3;selger;V;1;296;296;296;296;0;0;3999;26;M
10;18;t37;36;2;4;UG_longA;UG;long;I partallsuker om sommeren*Monica*selger*smykker*p? vikingmarkedet.;n;no question;no answer;no answer;-1;-1;-1;4982;4;smykker;O;1;169;341;341;341;0;0;3999;26;M
10;18;t37;36;2;4;UG_longA;UG;long;I partallsuker om sommeren*Monica*selger*smykker*p? vikingmarkedet.;n;no question;no answer;no answer;-1;-1;-1;4982;5;på vikingmarkedet.;A2;1;512;1927;1927;1927;0;0;3999;26;M
10;19;t40;40;2;4;G_longA;G;long;Rundt klokken fire p? l?rdag*treffer*Hanne*venninnen sin*p? kaf?.;n;no question;no answer;no answer;-1;-1;-1;4512;1;Rundt klokken fire på lørdag;A1;1;289;1111;1111;1111;0;0;3309;26;M
10;19;t40;40;2;4;G_longA;G;long;Rundt klokken fire p? l?rdag*treffer*Hanne*venninnen sin*p? kaf?.;n;no question;no answer;no answer;-1;-1;-1;4512;2;treffer;V;1;285;285;285;285;0;0;3309;26;M
10;19;t40;40;2;4;G_longA;G;long;Rundt klokken fire p? l?rdag*treffer*Hanne*venninnen sin*p? kaf?.;n;no question;no answer;no answer;-1;-1;-1;4512;3;Hanne;S;1;278;278;278;278;0;0;3309;26;M
10;19;t40;40;2;4;G_longA;G;long;Rundt klokken fire p? l?rdag*treffer*Hanne*venninnen sin*p? kaf?.;n;no question;no answer;no answer;-1;-1;-1;4512;4;venninnen sin;O;1;307;565;565;565;0;0;3309;26;M
10;19;t40;40;2;4;G_longA;G;long;Rundt klokken fire p? l?rdag*treffer*Hanne*venninnen sin*p? kaf?.;n;no question;no answer;no answer;-1;-1;-1;4512;5;på kafé.;A2;1;170;1070;1070;1070;0;0;3309;26;M
10;20;t36;41;2;4;UG_longA;UG;long;Omtrent klokken ni i kveld*Berit*synger*karaoke*p? puben.;y;Synger Berit karaoke p? puben i kveld?;t;Right;1;Right;2234;4151;1;Omtrent klokken ni i kveld;A1;1;312;1002;1002;1002;0;0;3224;26;M
10;20;t36;41;2;4;UG_longA;UG;long;Omtrent klokken ni i kveld*Berit*synger*karaoke*p? puben.;y;Synger Berit karaoke p? puben i kveld?;t;Right;1;Right;2234;4151;2;Berit;S;0;408;408;408;408;0;1;3224;26;M
10;20;t36;41;2;4;UG_longA;UG;long;Omtrent klokken ni i kveld*Berit*synger*karaoke*p? puben.;y;Synger Berit karaoke p? puben i kveld?;t;Right;1;Right;2234;4151;3;synger;V;1;250;250;845;437;1;0;3224;26;M
10;20;t36;41;2;4;UG_longA;UG;long;Omtrent klokken ni i kveld*Berit*synger*karaoke*p? puben.;y;Synger Berit karaoke p? puben i kveld?;t;Right;1;Right;2234;4151;4;karaoke;O;1;353;353;353;353;0;0;3224;26;M
10;20;t36;41;2;4;UG_longA;UG;long;Omtrent klokken ni i kveld*Berit*synger*karaoke*p? puben.;y;Synger Berit karaoke p? puben i kveld?;t;Right;1;Right;2234;4151;5;på puben.;A2;1;306;1024;1024;1024;0;0;3224;26;M
10;21;t24;43;2;3;G_shortA;G;short;I ferien*bygger*Helge*terrasse*i hagen.;n;no question;no answer;no answer;-1;-1;-1;4177;1;I ferien;A1;0;528;528;528;810;0;1;2560;26;M
10;21;t24;43;2;3;G_shortA;G;short;I ferien*bygger*Helge*terrasse*i hagen.;n;no question;no answer;no answer;-1;-1;-1;4177;2;bygger;V;0;295;480;480;849;0;1;2560;26;M
10;21;t24;43;2;3;G_shortA;G;short;I ferien*bygger*Helge*terrasse*i hagen.;n;no question;no answer;no answer;-1;-1;-1;4177;3;Helge;S;0;319;319;319;319;0;1;2560;26;M
10;21;t24;43;2;3;G_shortA;G;short;I ferien*bygger*Helge*terrasse*i hagen.;n;no question;no answer;no answer;-1;-1;-1;4177;4;terrasse;O;1;102;102;1697;370;1;0;2560;26;M
10;21;t24;43;2;3;G_shortA;G;short;I ferien*bygger*Helge*terrasse*i hagen.;n;no question;no answer;no answer;-1;-1;-1;4177;5;i hagen.;A2;1;212;212;863;212;1;0;2560;26;M
10;22;t29;44;2;3;G_longA;G;long;P? sensommerdager i august*selger*Eirik*blomster*p? torget.;y;Selger Eirik blomster i august?;t;Right;1;Right;2309;2741;1;På sensommerdager i august;A1;1;176;744;744;744;0;0;1623;26;M
10;22;t29;44;2;3;G_longA;G;long;P? sensommerdager i august*selger*Eirik*blomster*p? torget.;y;Selger Eirik blomster i august?;t;Right;1;Right;2309;2741;2;selger;V;1;207;207;207;207;0;0;1623;26;M
10;22;t29;44;2;3;G_longA;G;long;P? sensommerdager i august*selger*Eirik*blomster*p? torget.;y;Selger Eirik blomster i august?;t;Right;1;Right;2309;2741;3;Eirik;S;.;.;.;.;0;.;1;1623;26;M
10;22;t29;44;2;3;G_longA;G;long;P? sensommerdager i august*selger*Eirik*blomster*p? torget.;y;Selger Eirik blomster i august?;t;Right;1;Right;2309;2741;4;blomster;O;1;248;248;248;248;0;0;1623;26;M
10;22;t29;44;2;3;G_longA;G;long;P? sensommerdager i august*selger*Eirik*blomster*p? torget.;y;Selger Eirik blomster i august?;t;Right;1;Right;2309;2741;5;på torget.;A2;1;163;424;424;424;0;0;1623;26;M
10;23;t30;45;2;3;G_longA;G;long;Etter klokken ni hver kveld*tilbyr*restauranten*middag*til knallpriser.;n;no question;no answer;no answer;-1;-1;-1;2944;1;Etter klokken ni hver kveld;A1;1;147;670;670;670;0;0;1897;26;M
10;23;t30;45;2;3;G_longA;G;long;Etter klokken ni hver kveld*tilbyr*restauranten*middag*til knallpriser.;n;no question;no answer;no answer;-1;-1;-1;2944;2;tilbyr;V;1;249;249;249;249;0;0;1897;26;M
10;23;t30;45;2;3;G_longA;G;long;Etter klokken ni hver kveld*tilbyr*restauranten*middag*til knallpriser.;n;no question;no answer;no answer;-1;-1;-1;2944;3;restauranten;S;1;196;196;196;196;0;0;1897;26;M
10;23;t30;45;2;3;G_longA;G;long;Etter klokken ni hver kveld*tilbyr*restauranten*middag*til knallpriser.;n;no question;no answer;no answer;-1;-1;-1;2944;4;middag;O;1;298;298;298;298;0;0;1897;26;M
10;23;t30;45;2;3;G_longA;G;long;Etter klokken ni hver kveld*tilbyr*restauranten*middag*til knallpriser.;n;no question;no answer;no answer;-1;-1;-1;2944;5;til knallpriser.;A2;1;484;484;484;484;0;0;1897;26;M
10;24;t28;47;2;3;G_longA;G;long;P? alle hverdager i november*strikker*Helene*str?mper*p? bussen.;n;no question;no answer;no answer;-1;-1;-1;3809;1;På alle hverdager i november;A1;1;285;1018;1018;1018;0;0;2883;26;M
10;24;t28;47;2;3;G_longA;G;long;P? alle hverdager i november*strikker*Helene*str?mper*p? bussen.;n;no question;no answer;no answer;-1;-1;-1;3809;2;strikker;V;1;332;332;332;332;0;0;2883;26;M
10;24;t28;47;2;3;G_longA;G;long;P? alle hverdager i november*strikker*Helene*str?mper*p? bussen.;n;no question;no answer;no answer;-1;-1;-1;3809;3;Helene;S;1;155;155;155;155;0;0;2883;26;M
10;24;t28;47;2;3;G_longA;G;long;P? alle hverdager i november*strikker*Helene*str?mper*p? bussen.;n;no question;no answer;no answer;-1;-1;-1;3809;4;strømper;O;1;310;548;548;548;0;0;2883;26;M
10;24;t28;47;2;3;G_longA;G;long;P? alle hverdager i november*strikker*Helene*str?mper*p? bussen.;n;no question;no answer;no answer;-1;-1;-1;3809;5;på bussen.;A2;1;273;830;830;830;0;0;2883;26;M
10;25;t21;49;2;3;UG_shortA;UG;short;I april*bestemor*leser*ukeblader*i hagestuen.;n;no question;no answer;no answer;-1;-1;-1;3615;1;I april;A1;1;349;349;349;349;0;0;2790;26;M
10;25;t21;49;2;3;UG_shortA;UG;short;I april*bestemor*leser*ukeblader*i hagestuen.;n;no question;no answer;no answer;-1;-1;-1;3615;2;bestemor;S;1;284;284;284;284;0;0;2790;26;M
10;25;t21;49;2;3;UG_shortA;UG;short;I april*bestemor*leser*ukeblader*i hagestuen.;n;no question;no answer;no answer;-1;-1;-1;3615;3;leser;V;1;245;245;245;370;0;0;2790;26;M
10;25;t21;49;2;3;UG_shortA;UG;short;I april*bestemor*leser*ukeblader*i hagestuen.;n;no question;no answer;no answer;-1;-1;-1;3615;4;ukeblader;O;1;227;227;652;889;1;0;2790;26;M
10;25;t21;49;2;3;UG_shortA;UG;short;I april*bestemor*leser*ukeblader*i hagestuen.;n;no question;no answer;no answer;-1;-1;-1;3615;5;i hagestuen.;A2;1;193;193;1260;898;1;0;2790;26;M
10;26;t27;50;2;3;UG_longA;UG;long;I oddetallsuker i totiden*Astrid*henter*tvillingene*p? skolen.;y;Henter Astrid tvillingene klokken fem i oddetallsuker?;f;Left;1;Left;2369;4174;1;I oddetallsuker i totiden;A1;1;293;963;963;1545;0;0;3337;26;M
10;26;t27;50;2;3;UG_longA;UG;long;I oddetallsuker i totiden*Astrid*henter*tvillingene*p? skolen.;y;Henter Astrid tvillingene klokken fem i oddetallsuker?;f;Left;1;Left;2369;4174;2;Astrid;S;1;203;203;785;203;1;0;3337;26;M
10;26;t27;50;2;3;UG_longA;UG;long;I oddetallsuker i totiden*Astrid*henter*tvillingene*p? skolen.;y;Henter Astrid tvillingene klokken fem i oddetallsuker?;f;Left;1;Left;2369;4174;3;henter;V;1;334;334;334;334;0;0;3337;26;M
10;26;t27;50;2;3;UG_longA;UG;long;I oddetallsuker i totiden*Astrid*henter*tvillingene*p? skolen.;y;Henter Astrid tvillingene klokken fem i oddetallsuker?;f;Left;1;Left;2369;4174;4;tvillingene;O;1;195;565;565;565;0;0;3337;26;M
10;26;t27;50;2;3;UG_longA;UG;long;I oddetallsuker i totiden*Astrid*henter*tvillingene*p? skolen.;y;Henter Astrid tvillingene klokken fem i oddetallsuker?;f;Left;1;Left;2369;4174;5;på skolen.;A2;1;491;690;690;690;0;0;3337;26;M
10;27;t23;53;2;3;UG_shortA;UG;short;Hver uke*gutten*vasker*sykkelen*med s?pevann.;n;no question;no answer;no answer;-1;-1;-1;2842;1;Hver uke;A1;0;156;156;156;156;0;1;1843;26;M
10;27;t23;53;2;3;UG_shortA;UG;short;Hver uke*gutten*vasker*sykkelen*med s?pevann.;n;no question;no answer;no answer;-1;-1;-1;2842;2;gutten;S;1;193;193;564;694;1;0;1843;26;M
10;27;t23;53;2;3;UG_shortA;UG;short;Hver uke*gutten*vasker*sykkelen*med s?pevann.;n;no question;no answer;no answer;-1;-1;-1;2842;3;vasker;V;1;98;98;467;181;1;0;1843;26;M
10;27;t23;53;2;3;UG_shortA;UG;short;Hver uke*gutten*vasker*sykkelen*med s?pevann.;n;no question;no answer;no answer;-1;-1;-1;2842;4;sykkelen;O;1;275;275;275;275;0;0;1843;26;M
10;27;t23;53;2;3;UG_shortA;UG;short;Hver uke*gutten*vasker*sykkelen*med s?pevann.;n;no question;no answer;no answer;-1;-1;-1;2842;5;med såpevann.;A2;1;265;537;537;537;0;0;1843;26;M
10;28;t26;54;2;3;UG_longA;UG;long;P? sene ettermiddager om v?ren*kattene*f?der*ungene sine*ute i stallen.;n;no question;no answer;no answer;-1;-1;-1;4614;1;På sene ettermiddager om våren;A1;1;218;1204;1204;1204;0;0;3636;26;M
10;28;t26;54;2;3;UG_longA;UG;long;P? sene ettermiddager om v?ren*kattene*f?der*ungene sine*ute i stallen.;n;no question;no answer;no answer;-1;-1;-1;4614;2;kattene;S;1;185;476;476;476;0;0;3636;26;M
10;28;t26;54;2;3;UG_longA;UG;long;P? sene ettermiddager om v?ren*kattene*f?der*ungene sine*ute i stallen.;n;no question;no answer;no answer;-1;-1;-1;4614;3;føder;V;1;398;398;398;398;0;0;3636;26;M
10;28;t26;54;2;3;UG_longA;UG;long;P? sene ettermiddager om v?ren*kattene*f?der*ungene sine*ute i stallen.;n;no question;no answer;no answer;-1;-1;-1;4614;4;ungene sine;O;1;328;328;328;328;0;0;3636;26;M
10;28;t26;54;2;3;UG_longA;UG;long;P? sene ettermiddager om v?ren*kattene*f?der*ungene sine*ute i stallen.;n;no question;no answer;no answer;-1;-1;-1;4614;5;ute i stallen.;A2;1;351;1230;1230;1230;0;0;3636;26;M
10;29;t25;60;2;3;G_shortA;G;short;I mars*bes?ker*pensjonistene*Botanisk hage*inne i byen.;y;Bes?ker pensjonistene en pub i mars?;f;Left;1;Left;1650;2979;1;I mars;A1;1;243;243;243;243;0;0;1946;26;M
10;29;t25;60;2;3;G_shortA;G;short;I mars*bes?ker*pensjonistene*Botanisk hage*inne i byen.;y;Bes?ker pensjonistene en pub i mars?;f;Left;1;Left;1650;2979;2;besøker;V;1;117;117;117;117;0;0;1946;26;M
10;29;t25;60;2;3;G_shortA;G;short;I mars*bes?ker*pensjonistene*Botanisk hage*inne i byen.;y;Bes?ker pensjonistene en pub i mars?;f;Left;1;Left;1650;2979;3;pensjonistene;S;1;224;443;443;443;0;0;1946;26;M
10;29;t25;60;2;3;G_shortA;G;short;I mars*bes?ker*pensjonistene*Botanisk hage*inne i byen.;y;Bes?ker pensjonistene en pub i mars?;f;Left;1;Left;1650;2979;4;Botanisk hage;O;1;469;894;894;894;0;0;1946;26;M
10;29;t25;60;2;3;G_shortA;G;short;I mars*bes?ker*pensjonistene*Botanisk hage*inne i byen.;y;Bes?ker pensjonistene en pub i mars?;f;Left;1;Left;1650;2979;5;inne i byen.;A2;1;249;249;249;249;0;0;1946;26;M
10;30;t22;62;2;3;UG_shortA;UG;short;F?r p?ske*barna*maler*p?skeegg*i barnehagen.;y;Maler barna p?skeegg i barnehagen?;t;Right;1;Right;2700;3465;1;Før påske;A1;1;117;825;825;825;0;0;2610;26;M
10;30;t22;62;2;3;UG_shortA;UG;short;F?r p?ske*barna*maler*p?skeegg*i barnehagen.;y;Maler barna p?skeegg i barnehagen?;t;Right;1;Right;2700;3465;2;barna;S;1;440;440;440;440;0;0;2610;26;M
10;30;t22;62;2;3;UG_shortA;UG;short;F?r p?ske*barna*maler*p?skeegg*i barnehagen.;y;Maler barna p?skeegg i barnehagen?;t;Right;1;Right;2700;3465;3;maler;V;1;199;199;199;199;0;0;2610;26;M
10;30;t22;62;2;3;UG_shortA;UG;short;F?r p?ske*barna*maler*p?skeegg*i barnehagen.;y;Maler barna p?skeegg i barnehagen?;t;Right;1;Right;2700;3465;4;påskeegg;O;1;231;401;401;401;0;0;2610;26;M
10;30;t22;62;2;3;UG_shortA;UG;short;F?r p?ske*barna*maler*p?skeegg*i barnehagen.;y;Maler barna p?skeegg i barnehagen?;t;Right;1;Right;2700;3465;5;i barnehagen.;A2;1;350;745;745;745;0;0;2610;26;M
10;31;t6;63;2;1;UG_longA;UG;long;Hver eneste ettermiddag i jula*jenta*baker*pepperkaker*hos bestemor.;n;no question;no answer;no answer;-1;-1;-1;3319;1;Hver eneste ettermiddag i jula;A1;1;312;1070;1070;1070;0;0;2208;26;M
10;31;t6;63;2;1;UG_longA;UG;long;Hver eneste ettermiddag i jula*jenta*baker*pepperkaker*hos bestemor.;n;no question;no answer;no answer;-1;-1;-1;3319;2;jenta;S;1;305;305;305;305;0;0;2208;26;M
10;31;t6;63;2;1;UG_longA;UG;long;Hver eneste ettermiddag i jula*jenta*baker*pepperkaker*hos bestemor.;n;no question;no answer;no answer;-1;-1;-1;3319;3;baker;V;1;369;369;369;369;0;0;2208;26;M
10;31;t6;63;2;1;UG_longA;UG;long;Hver eneste ettermiddag i jula*jenta*baker*pepperkaker*hos bestemor.;n;no question;no answer;no answer;-1;-1;-1;3319;4;pepperkaker;O;1;235;235;235;235;0;0;2208;26;M
10;31;t6;63;2;1;UG_longA;UG;long;Hver eneste ettermiddag i jula*jenta*baker*pepperkaker*hos bestemor.;n;no question;no answer;no answer;-1;-1;-1;3319;5;hos bestemor.;A2;1;229;229;229;229;0;0;2208;26;M
10;32;t5;65;2;1;G_shortA;G;short;Om natten*l?ser*Marit*kryssord*p? mobilen.;n;no question;no answer;no answer;-1;-1;-1;1969;1;Om natten;A1;1;250;250;250;250;0;0;1208;26;M
10;32;t5;65;2;1;G_shortA;G;short;Om natten*l?ser*Marit*kryssord*p? mobilen.;n;no question;no answer;no answer;-1;-1;-1;1969;2;løser;V;1;230;230;230;230;0;0;1208;26;M
10;32;t5;65;2;1;G_shortA;G;short;Om natten*l?ser*Marit*kryssord*p? mobilen.;n;no question;no answer;no answer;-1;-1;-1;1969;3;Marit;S;.;.;.;.;0;.;1;1208;26;M
10;32;t5;65;2;1;G_shortA;G;short;Om natten*l?ser*Marit*kryssord*p? mobilen.;n;no question;no answer;no answer;-1;-1;-1;1969;4;kryssord;O;1;209;369;369;369;0;0;1208;26;M
10;32;t5;65;2;1;G_shortA;G;short;Om natten*l?ser*Marit*kryssord*p? mobilen.;n;no question;no answer;no answer;-1;-1;-1;1969;5;på mobilen.;A2;1;359;359;359;359;0;0;1208;26;M
10;33;t10;66;2;1;G_longA;G;long;Om formiddagen p? s?ndager*synger*Julie*salmer*i kirken.;n;no question;no answer;no answer;-1;-1;-1;2506;1;Om formiddagen på søndager;A1;1;239;480;480;480;0;0;1858;26;M
10;33;t10;66;2;1;G_longA;G;long;Om formiddagen p? s?ndager*synger*Julie*salmer*i kirken.;n;no question;no answer;no answer;-1;-1;-1;2506;2;synger;V;1;356;356;356;356;0;0;1858;26;M
10;33;t10;66;2;1;G_longA;G;long;Om formiddagen p? s?ndager*synger*Julie*salmer*i kirken.;n;no question;no answer;no answer;-1;-1;-1;2506;3;Julie;S;.;.;.;.;0;.;1;1858;26;M
10;33;t10;66;2;1;G_longA;G;long;Om formiddagen p? s?ndager*synger*Julie*salmer*i kirken.;n;no question;no answer;no answer;-1;-1;-1;2506;4;salmer;O;1;205;497;497;497;0;0;1858;26;M
10;33;t10;66;2;1;G_longA;G;long;Om formiddagen p? s?ndager*synger*Julie*salmer*i kirken.;n;no question;no answer;no answer;-1;-1;-1;2506;5;i kirken.;A2;1;525;525;525;525;0;0;1858;26;M
10;34;t7;67;2;1;UG_longA;UG;long;F?r juleferien i desember*bestefar*sender*julekort*til alle barnebarna sine.;y;Sender bestefar julekort i november?;f;Left;1;Left;2044;2620;1;Før juleferien i desember;A1;1;142;550;550;550;0;0;1785;26;M
10;34;t7;67;2;1;UG_longA;UG;long;F?r juleferien i desember*bestefar*sender*julekort*til alle barnebarna sine.;y;Sender bestefar julekort i november?;f;Left;1;Left;2044;2620;2;bestefar;S;1;304;304;304;304;0;0;1785;26;M
10;34;t7;67;2;1;UG_longA;UG;long;F?r juleferien i desember*bestefar*sender*julekort*til alle barnebarna sine.;y;Sender bestefar julekort i november?;f;Left;1;Left;2044;2620;3;sender;V;1;176;176;176;176;0;0;1785;26;M
10;34;t7;67;2;1;UG_longA;UG;long;F?r juleferien i desember*bestefar*sender*julekort*til alle barnebarna sine.;y;Sender bestefar julekort i november?;f;Left;1;Left;2044;2620;4;julekort;O;1;179;179;179;179;0;0;1785;26;M
10;34;t7;67;2;1;UG_longA;UG;long;F?r juleferien i desember*bestefar*sender*julekort*til alle barnebarna sine.;y;Sender bestefar julekort i november?;f;Left;1;Left;2044;2620;5;til alle barnebarna sine.;A2;1;367;576;576;576;0;0;1785;26;M
10;35;t4;68;2;1;G_shortA;G;short;L?rdag kveld*spiser*gutten*gelato*p? Solsiden.;n;no question;no answer;no answer;-1;-1;-1;2719;1;Lørdag kveld;A1;1;225;225;225;225;0;0;1805;26;M
10;35;t4;68;2;1;G_shortA;G;short;L?rdag kveld*spiser*gutten*gelato*p? Solsiden.;n;no question;no answer;no answer;-1;-1;-1;2719;2;spiser;V;1;158;369;369;369;0;0;1805;26;M
10;35;t4;68;2;1;G_shortA;G;short;L?rdag kveld*spiser*gutten*gelato*p? Solsiden.;n;no question;no answer;no answer;-1;-1;-1;2719;3;gutten;S;1;454;454;454;454;0;0;1805;26;M
10;35;t4;68;2;1;G_shortA;G;short;L?rdag kveld*spiser*gutten*gelato*p? Solsiden.;n;no question;no answer;no answer;-1;-1;-1;2719;4;gelato;O;1;363;363;363;363;0;0;1805;26;M
10;35;t4;68;2;1;G_shortA;G;short;L?rdag kveld*spiser*gutten*gelato*p? Solsiden.;n;no question;no answer;no answer;-1;-1;-1;2719;5;på Solsiden.;A2;1;394;394;394;394;0;0;1805;26;M
10;36;t1;71;2;1;UG_shortA;UG;short;I helgen*pappa*leser*avisen*p? sofaen.;y;Leser pappa romaner p? sofaen?;f;Left;1;Left;2279;3099;1;I helgen;A1;1;191;191;191;191;0;0;2151;26;M
10;36;t1;71;2;1;UG_shortA;UG;short;I helgen*pappa*leser*avisen*p? sofaen.;y;Leser pappa romaner p? sofaen?;f;Left;1;Left;2279;3099;2;pappa;S;1;197;197;197;475;0;0;2151;26;M
10;36;t1;71;2;1;UG_shortA;UG;short;I helgen*pappa*leser*avisen*p? sofaen.;y;Leser pappa romaner p? sofaen?;f;Left;1;Left;2279;3099;3;leser;V;1;212;212;645;367;1;0;2151;26;M
10;36;t1;71;2;1;UG_shortA;UG;short;I helgen*pappa*leser*avisen*p? sofaen.;y;Leser pappa romaner p? sofaen?;f;Left;1;Left;2279;3099;4;avisen;O;1;435;435;435;435;0;0;2151;26;M
10;36;t1;71;2;1;UG_shortA;UG;short;I helgen*pappa*leser*avisen*p? sofaen.;y;Leser pappa romaner p? sofaen?;f;Left;1;Left;2279;3099;5;på sofaen.;A2;1;293;683;683;683;0;0;2151;26;M
10;37;t8;72;2;1;G_longA;G;long;Om ettermiddagen p? torsdager*spiller*gutten*fotball*med vennene sine.;y;Spiller gutten fotball med faren sin?;f;Left;1;Left;1733;3850;1;Om ettermiddagen på torsdager;A1;1;174;843;843;843;0;0;2664;26;M
10;37;t8;72;2;1;G_longA;G;long;Om ettermiddagen p? torsdager*spiller*gutten*fotball*med vennene sine.;y;Spiller gutten fotball med faren sin?;f;Left;1;Left;1733;3850;2;spiller;V;1;266;266;266;266;0;0;2664;26;M
10;37;t8;72;2;1;G_longA;G;long;Om ettermiddagen p? torsdager*spiller*gutten*fotball*med vennene sine.;y;Spiller gutten fotball med faren sin?;f;Left;1;Left;1733;3850;3;gutten;S;1;310;310;310;554;0;0;2664;26;M
10;37;t8;72;2;1;G_longA;G;long;Om ettermiddagen p? torsdager*spiller*gutten*fotball*med vennene sine.;y;Spiller gutten fotball med faren sin?;f;Left;1;Left;1733;3850;4;fotball;O;1;172;172;644;400;1;0;2664;26;M
10;37;t8;72;2;1;G_longA;G;long;Om ettermiddagen p? torsdager*spiller*gutten*fotball*med vennene sine.;y;Spiller gutten fotball med faren sin?;f;Left;1;Left;1733;3850;5;med vennene sine.;A2;1;440;601;601;601;0;0;2664;26;M
10;38;t9;76;2;1;G_longA;G;long;Veldig tidlig om morgenen*drikker*hunden*vann*fra toalettet.;n;no question;no answer;no answer;-1;-1;-1;3515;1;Veldig tidlig om morgenen;A1;1;146;725;725;725;0;0;2690;26;M
10;38;t9;76;2;1;G_longA;G;long;Veldig tidlig om morgenen*drikker*hunden*vann*fra toalettet.;n;no question;no answer;no answer;-1;-1;-1;3515;2;drikker;V;1;225;225;225;225;0;0;2690;26;M
10;38;t9;76;2;1;G_longA;G;long;Veldig tidlig om morgenen*drikker*hunden*vann*fra toalettet.;n;no question;no answer;no answer;-1;-1;-1;3515;3;hunden;S;1;249;249;249;249;0;0;2690;26;M
10;38;t9;76;2;1;G_longA;G;long;Veldig tidlig om morgenen*drikker*hunden*vann*fra toalettet.;n;no question;no answer;no answer;-1;-1;-1;3515;4;vann;O;1;410;410;410;410;0;0;2690;26;M
10;38;t9;76;2;1;G_longA;G;long;Veldig tidlig om morgenen*drikker*hunden*vann*fra toalettet.;n;no question;no answer;no answer;-1;-1;-1;3515;5;fra toalettet.;A2;1;248;1081;1081;1081;0;0;2690;26;M
10;39;t2;78;2;1;UG_shortA;UG;short;Hver dag*mannen*lufter*hunden sin*i parken.;y;Lufter mannen hunden sin i parken?;t;Right;1;Right;1586;2356;1;Hver dag;A1;1;135;135;135;135;0;0;1431;26;M
10;39;t2;78;2;1;UG_shortA;UG;short;Hver dag*mannen*lufter*hunden sin*i parken.;y;Lufter mannen hunden sin i parken?;t;Right;1;Right;1586;2356;2;mannen;S;1;224;224;224;224;0;0;1431;26;M
10;39;t2;78;2;1;UG_shortA;UG;short;Hver dag*mannen*lufter*hunden sin*i parken.;y;Lufter mannen hunden sin i parken?;t;Right;1;Right;1586;2356;3;lufter;V;1;213;213;213;213;0;0;1431;26;M
10;39;t2;78;2;1;UG_shortA;UG;short;Hver dag*mannen*lufter*hunden sin*i parken.;y;Lufter mannen hunden sin i parken?;t;Right;1;Right;1586;2356;4;hunden sin;O;1;257;523;523;523;0;0;1431;26;M
10;39;t2;78;2;1;UG_shortA;UG;short;Hver dag*mannen*lufter*hunden sin*i parken.;y;Lufter mannen hunden sin i parken?;t;Right;1;Right;1586;2356;5;i parken.;A2;1;336;336;336;336;0;0;1431;26;M
10;40;t3;81;2;1;UG_shortA;UG;short;I 2020*kommunen*holder*nynorskkurs*for offentlig ansatte.;n;no question;no answer;no answer;-1;-1;-1;3452;1;I 2020;A1;.;.;.;.;0;.;1;2452;26;M
10;40;t3;81;2;1;UG_shortA;UG;short;I 2020*kommunen*holder*nynorskkurs*for offentlig ansatte.;n;no question;no answer;no answer;-1;-1;-1;3452;2;kommunen;S;1;331;635;635;988;0;0;2452;26;M
10;40;t3;81;2;1;UG_shortA;UG;short;I 2020*kommunen*holder*nynorskkurs*for offentlig ansatte.;n;no question;no answer;no answer;-1;-1;-1;3452;3;holder;V;1;255;365;930;577;1;0;2452;26;M
10;40;t3;81;2;1;UG_shortA;UG;short;I 2020*kommunen*holder*nynorskkurs*for offentlig ansatte.;n;no question;no answer;no answer;-1;-1;-1;3452;4;nynorskkurs;O;1;308;406;406;406;0;0;2452;26;M
10;40;t3;81;2;1;UG_shortA;UG;short;I 2020*kommunen*holder*nynorskkurs*for offentlig ansatte.;n;no question;no answer;no answer;-1;-1;-1;3452;5;for offentlig ansatte.;A2;1;310;481;481;481;0;0;2452;26;M
11;1;t31;3;3;4;G_longA;G;long;Fra 1. september neste ?r*skriver*Marius*avhandling*p? universitetet.;n;no question;no answer;no answer;-1;-1;-1;3350;1;Fra 1. september neste år;A1;1;127;886;886;886;0;0;2328;24;M
11;1;t31;3;3;4;G_longA;G;long;Fra 1. september neste ?r*skriver*Marius*avhandling*p? universitetet.;n;no question;no answer;no answer;-1;-1;-1;3350;2;skriver;V;1;129;129;129;129;0;0;2328;24;M
11;1;t31;3;3;4;G_longA;G;long;Fra 1. september neste ?r*skriver*Marius*avhandling*p? universitetet.;n;no question;no answer;no answer;-1;-1;-1;3350;3;Marius;S;1;232;232;232;336;0;0;2328;24;M
11;1;t31;3;3;4;G_longA;G;long;Fra 1. september neste ?r*skriver*Marius*avhandling*p? universitetet.;n;no question;no answer;no answer;-1;-1;-1;3350;4;avhandling;O;1;360;458;705;601;1;0;2328;24;M
11;1;t31;3;3;4;G_longA;G;long;Fra 1. september neste ?r*skriver*Marius*avhandling*p? universitetet.;n;no question;no answer;no answer;-1;-1;-1;3350;5;på universitetet.;A2;1;293;376;376;376;0;0;2328;24;M
11;2;t39;5;3;4;UG_shortA;UG;short;Etter jobb*Ingrid*baker*rundstykker*p? kj?kkenet.;y;Baker Ingrid rundstykker etter jobb?;t;Right;0;Left;3037;3219;1;Etter jobb;A1;1;148;148;148;309;0;0;1951;24;M
11;2;t39;5;3;4;UG_shortA;UG;short;Etter jobb*Ingrid*baker*rundstykker*p? kj?kkenet.;y;Baker Ingrid rundstykker etter jobb?;t;Right;0;Left;3037;3219;2;Ingrid;S;1;187;187;187;408;0;0;1951;24;M
11;2;t39;5;3;4;UG_shortA;UG;short;Etter jobb*Ingrid*baker*rundstykker*p? kj?kkenet.;y;Baker Ingrid rundstykker etter jobb?;t;Right;0;Left;3037;3219;3;baker;V;1;165;165;904;522;1;0;1951;24;M
11;2;t39;5;3;4;UG_shortA;UG;short;Etter jobb*Ingrid*baker*rundstykker*p? kj?kkenet.;y;Baker Ingrid rundstykker etter jobb?;t;Right;0;Left;3037;3219;4;rundstykker;O;1;227;227;227;227;0;0;1951;24;M
11;2;t39;5;3;4;UG_shortA;UG;short;Etter jobb*Ingrid*baker*rundstykker*p? kj?kkenet.;y;Baker Ingrid rundstykker etter jobb?;t;Right;0;Left;3037;3219;5;på kjøkkenet.;A2;1;159;485;485;485;0;0;1951;24;M
11;3;t36;8;3;4;G_shortA;G;short;I kveld*synger*Berit*karaoke*p? puben.;y;Synger Berit karaoke p? puben i kveld?;t;Right;1;Right;2392;2126;1;I kveld;A1;1;101;251;251;251;0;0;985;24;M
11;3;t36;8;3;4;G_shortA;G;short;I kveld*synger*Berit*karaoke*p? puben.;y;Synger Berit karaoke p? puben i kveld?;t;Right;1;Right;2392;2126;2;synger;V;1;127;127;127;127;0;0;985;24;M
11;3;t36;8;3;4;G_shortA;G;short;I kveld*synger*Berit*karaoke*p? puben.;y;Synger Berit karaoke p? puben i kveld?;t;Right;1;Right;2392;2126;3;Berit;S;1;143;143;143;143;0;0;985;24;M
11;3;t36;8;3;4;G_shortA;G;short;I kveld*synger*Berit*karaoke*p? puben.;y;Synger Berit karaoke p? puben i kveld?;t;Right;1;Right;2392;2126;4;karaoke;O;1;105;310;310;310;0;0;985;24;M
11;3;t36;8;3;4;G_shortA;G;short;I kveld*synger*Berit*karaoke*p? puben.;y;Synger Berit karaoke p? puben i kveld?;t;Right;1;Right;2392;2126;5;på puben.;A2;1;154;154;154;154;0;0;985;24;M
11;4;t34;10;3;4;UG_longA;UG;long;P? allehelgensaften i oktober*Hilde*lager*gresskarlykter*med datteren sin.;n;no question;no answer;no answer;-1;-1;-1;3351;1;På allehelgensaften i oktober;A1;1;125;517;517;517;0;0;2065;24;M
11;4;t34;10;3;4;UG_longA;UG;long;P? allehelgensaften i oktober*Hilde*lager*gresskarlykter*med datteren sin.;n;no question;no answer;no answer;-1;-1;-1;3351;2;Hilde;S;.;.;.;.;0;.;1;2065;24;M
11;4;t34;10;3;4;UG_longA;UG;long;P? allehelgensaften i oktober*Hilde*lager*gresskarlykter*med datteren sin.;n;no question;no answer;no answer;-1;-1;-1;3351;3;lager;V;1;292;494;494;736;0;0;2065;24;M
11;4;t34;10;3;4;UG_longA;UG;long;P? allehelgensaften i oktober*Hilde*lager*gresskarlykter*med datteren sin.;n;no question;no answer;no answer;-1;-1;-1;3351;4;gresskarlykter;O;1;237;237;237;237;0;0;2065;24;M
11;4;t34;10;3;4;UG_longA;UG;long;P? allehelgensaften i oktober*Hilde*lager*gresskarlykter*med datteren sin.;n;no question;no answer;no answer;-1;-1;-1;3351;5;med datteren sin.;A2;1;166;166;817;575;1;0;2065;24;M
11;5;t40;12;3;4;UG_shortA;UG;short;P? l?rdag*Hanne*treffer*venninnen sin*p? kaf?.;n;no question;no answer;no answer;-1;-1;-1;2679;1;På lørdag;A1;1;163;163;163;163;0;0;1520;24;M
11;5;t40;12;3;4;UG_shortA;UG;short;P? l?rdag*Hanne*treffer*venninnen sin*p? kaf?.;n;no question;no answer;no answer;-1;-1;-1;2679;2;Hanne;S;1;194;194;194;194;0;0;1520;24;M
11;5;t40;12;3;4;UG_shortA;UG;short;P? l?rdag*Hanne*treffer*venninnen sin*p? kaf?.;n;no question;no answer;no answer;-1;-1;-1;2679;3;treffer;V;1;206;345;345;345;0;0;1520;24;M
11;5;t40;12;3;4;UG_shortA;UG;short;P? l?rdag*Hanne*treffer*venninnen sin*p? kaf?.;n;no question;no answer;no answer;-1;-1;-1;2679;4;venninnen sin;O;1;155;155;155;155;0;0;1520;24;M
11;5;t40;12;3;4;UG_shortA;UG;short;P? l?rdag*Hanne*treffer*venninnen sin*p? kaf?.;n;no question;no answer;no answer;-1;-1;-1;2679;5;på kafé.;A2;1;274;663;663;663;0;0;1520;24;M
11;6;t38;15;3;4;G_shortA;G;short;I februar*sm?rer*Trond*skiene sine*med voks.;n;no question;no answer;no answer;-1;-1;-1;2366;1;I februar;A1;1;166;166;166;166;0;0;1067;24;M
11;6;t38;15;3;4;G_shortA;G;short;I februar*sm?rer*Trond*skiene sine*med voks.;n;no question;no answer;no answer;-1;-1;-1;2366;2;smører;V;1;214;214;214;214;0;0;1067;24;M
11;6;t38;15;3;4;G_shortA;G;short;I februar*sm?rer*Trond*skiene sine*med voks.;n;no question;no answer;no answer;-1;-1;-1;2366;3;Trond;S;1;146;146;146;146;0;0;1067;24;M
11;6;t38;15;3;4;G_shortA;G;short;I februar*sm?rer*Trond*skiene sine*med voks.;n;no question;no answer;no answer;-1;-1;-1;2366;4;skiene sine;O;1;218;218;218;218;0;0;1067;24;M
11;6;t38;15;3;4;G_shortA;G;short;I februar*sm?rer*Trond*skiene sine*med voks.;n;no question;no answer;no answer;-1;-1;-1;2366;5;med voks.;A2;1;168;323;323;323;0;0;1067;24;M
11;7;t35;16;3;4;UG_longA;UG;long;Klokken halv elleve f?r lunsj*sjefen*spiser*en kanelbolle*p? kontoret.;y;Spiser sjefen en kanelbolle i bilen f?r lunsj?;f;Left;1;Left;2507;3279;1;Klokken halv elleve før lunsj;A1;1;225;642;642;804;0;0;2305;24;M
11;7;t35;16;3;4;UG_longA;UG;long;Klokken halv elleve f?r lunsj*sjefen*spiser*en kanelbolle*p? kontoret.;y;Spiser sjefen en kanelbolle i bilen f?r lunsj?;f;Left;1;Left;2507;3279;2;sjefen;S;1;133;133;133;247;0;0;2305;24;M
11;7;t35;16;3;4;UG_longA;UG;long;Klokken halv elleve f?r lunsj*sjefen*spiser*en kanelbolle*p? kontoret.;y;Spiser sjefen en kanelbolle i bilen f?r lunsj?;f;Left;1;Left;2507;3279;3;spiser;V;1;172;347;793;517;1;0;2305;24;M
11;7;t35;16;3;4;UG_longA;UG;long;Klokken halv elleve f?r lunsj*sjefen*spiser*en kanelbolle*p? kontoret.;y;Spiser sjefen en kanelbolle i bilen f?r lunsj?;f;Left;1;Left;2507;3279;4;en kanelbolle;O;1;188;188;188;188;0;0;2305;24;M
11;7;t35;16;3;4;UG_longA;UG;long;Klokken halv elleve f?r lunsj*sjefen*spiser*en kanelbolle*p? kontoret.;y;Spiser sjefen en kanelbolle i bilen f?r lunsj?;f;Left;1;Left;2507;3279;5;på kontoret.;A2;1;363;549;549;549;0;0;2305;24;M
11;8;t32;17;3;4;G_longA;G;long;De fleste dager etter skolen*sender*jenta*meldinger*p? Snapchat.;n;no question;no answer;no answer;-1;-1;-1;3495;1;De fleste dager etter skolen;A1;1;125;646;646;646;0;0;1607;24;M
11;8;t32;17;3;4;G_longA;G;long;De fleste dager etter skolen*sender*jenta*meldinger*p? Snapchat.;n;no question;no answer;no answer;-1;-1;-1;3495;2;sender;V;1;225;225;225;225;0;0;1607;24;M
11;8;t32;17;3;4;G_longA;G;long;De fleste dager etter skolen*sender*jenta*meldinger*p? Snapchat.;n;no question;no answer;no answer;-1;-1;-1;3495;3;jenta;S;.;.;.;.;0;.;1;1607;24;M
11;8;t32;17;3;4;G_longA;G;long;De fleste dager etter skolen*sender*jenta*meldinger*p? Snapchat.;n;no question;no answer;no answer;-1;-1;-1;3495;4;meldinger;O;1;235;235;235;454;0;0;1607;24;M
11;8;t32;17;3;4;G_longA;G;long;De fleste dager etter skolen*sender*jenta*meldinger*p? Snapchat.;n;no question;no answer;no answer;-1;-1;-1;3495;5;på Snapchat.;A2;1;282;282;501;282;1;0;1607;24;M
11;9;t33;19;3;4;UG_longA;UG;long;F?r filmkveld p? fredager*vennene*kj?per*godteri*p? butikken.;y;Stjeler vennene godteri p? butikken?;f;Left;1;Left;2111;2846;1;Før filmkveld på fredager;A1;1;123;780;780;780;0;0;1652;24;M
11;9;t33;19;3;4;UG_longA;UG;long;F?r filmkveld p? fredager*vennene*kj?per*godteri*p? butikken.;y;Stjeler vennene godteri p? butikken?;f;Left;1;Left;2111;2846;2;vennene;S;0;80;80;80;80;0;1;1652;24;M
11;9;t33;19;3;4;UG_longA;UG;long;F?r filmkveld p? fredager*vennene*kj?per*godteri*p? butikken.;y;Stjeler vennene godteri p? butikken?;f;Left;1;Left;2111;2846;3;kjøper;V;1;155;155;235;155;1;0;1652;24;M
11;9;t33;19;3;4;UG_longA;UG;long;F?r filmkveld p? fredager*vennene*kj?per*godteri*p? butikken.;y;Stjeler vennene godteri p? butikken?;f;Left;1;Left;2111;2846;4;godteri;O;1;167;493;493;493;0;0;1652;24;M
11;9;t33;19;3;4;UG_longA;UG;long;F?r filmkveld p? fredager*vennene*kj?per*godteri*p? butikken.;y;Stjeler vennene godteri p? butikken?;f;Left;1;Left;2111;2846;5;på butikken.;A2;1;144;144;144;144;0;0;1652;24;M
11;10;t37;21;3;4;G_shortA;G;short;Om sommeren*selger*Monica*smykker*p? vikingmarkedet.;n;no question;no answer;no answer;-1;-1;-1;2517;1;Om sommeren;A1;1;124;250;250;250;0;0;1587;24;M
11;10;t37;21;3;4;G_shortA;G;short;Om sommeren*selger*Monica*smykker*p? vikingmarkedet.;n;no question;no answer;no answer;-1;-1;-1;2517;2;selger;V;1;337;337;337;337;0;0;1587;24;M
11;10;t37;21;3;4;G_shortA;G;short;Om sommeren*selger*Monica*smykker*p? vikingmarkedet.;n;no question;no answer;no answer;-1;-1;-1;2517;3;Monica;S;1;84;84;84;84;0;0;1587;24;M
11;10;t37;21;3;4;G_shortA;G;short;Om sommeren*selger*Monica*smykker*p? vikingmarkedet.;n;no question;no answer;no answer;-1;-1;-1;2517;4;smykker;O;1;221;221;221;221;0;0;1587;24;M
11;10;t37;21;3;4;G_shortA;G;short;Om sommeren*selger*Monica*smykker*p? vikingmarkedet.;n;no question;no answer;no answer;-1;-1;-1;2517;5;på vikingmarkedet.;A2;1;242;695;695;695;0;0;1587;24;M
11;11;t22;25;3;3;G_longA;G;long;Hele onsdag formiddag f?r p?ske*maler*barna*p?skeegg*i barnehagen.;y;Maler barna p?skeegg i barnehagen?;t;Right;1;Right;2261;2767;1;Hele onsdag formiddag før påske;A1;1;129;688;688;688;0;0;1547;24;M
11;11;t22;25;3;3;G_longA;G;long;Hele onsdag formiddag f?r p?ske*maler*barna*p?skeegg*i barnehagen.;y;Maler barna p?skeegg i barnehagen?;t;Right;1;Right;2261;2767;2;maler;V;1;205;205;205;205;0;0;1547;24;M
11;11;t22;25;3;3;G_longA;G;long;Hele onsdag formiddag f?r p?ske*maler*barna*p?skeegg*i barnehagen.;y;Maler barna p?skeegg i barnehagen?;t;Right;1;Right;2261;2767;3;barna;S;1;149;149;149;149;0;0;1547;24;M
11;11;t22;25;3;3;G_longA;G;long;Hele onsdag formiddag f?r p?ske*maler*barna*p?skeegg*i barnehagen.;y;Maler barna p?skeegg i barnehagen?;t;Right;1;Right;2261;2767;4;påskeegg;O;1;275;275;275;275;0;0;1547;24;M
11;11;t22;25;3;3;G_longA;G;long;Hele onsdag formiddag f?r p?ske*maler*barna*p?skeegg*i barnehagen.;y;Maler barna p?skeegg i barnehagen?;t;Right;1;Right;2261;2767;5;i barnehagen.;A2;1;230;230;230;230;0;0;1547;24;M
11;12;t23;26;3;3;G_longA;G;long;En gang om formiddagen hver uke*vasker*gutten*sykkelen*med s?pevann.;n;no question;no answer;no answer;-1;-1;-1;2481;1;En gang om formiddagen hver uke;A1;1;130;583;583;583;0;0;1312;24;M
11;12;t23;26;3;3;G_longA;G;long;En gang om formiddagen hver uke*vasker*gutten*sykkelen*med s?pevann.;n;no question;no answer;no answer;-1;-1;-1;2481;2;vasker;V;1;114;299;299;299;0;0;1312;24;M
11;12;t23;26;3;3;G_longA;G;long;En gang om formiddagen hver uke*vasker*gutten*sykkelen*med s?pevann.;n;no question;no answer;no answer;-1;-1;-1;2481;3;gutten;S;.;.;.;.;0;.;1;1312;24;M
11;12;t23;26;3;3;G_longA;G;long;En gang om formiddagen hver uke*vasker*gutten*sykkelen*med s?pevann.;n;no question;no answer;no answer;-1;-1;-1;2481;4;sykkelen;O;1;139;268;268;268;0;0;1312;24;M
11;12;t23;26;3;3;G_longA;G;long;En gang om formiddagen hver uke*vasker*gutten*sykkelen*med s?pevann.;n;no question;no answer;no answer;-1;-1;-1;2481;5;med såpevann.;A2;1;162;162;162;162;0;0;1312;24;M
11;13;t28;28;3;3;UG_shortA;UG;short;I november*Helene*strikker*str?mper*p? bussen.;n;no question;no answer;no answer;-1;-1;-1;1960;1;I november;A1;1;146;146;146;146;0;0;895;24;M
11;13;t28;28;3;3;UG_shortA;UG;short;I november*Helene*strikker*str?mper*p? bussen.;n;no question;no answer;no answer;-1;-1;-1;1960;2;Helene;S;1;191;191;191;191;0;0;895;24;M
11;13;t28;28;3;3;UG_shortA;UG;short;I november*Helene*strikker*str?mper*p? bussen.;n;no question;no answer;no answer;-1;-1;-1;1960;3;strikker;V;1;125;263;263;263;0;0;895;24;M
11;13;t28;28;3;3;UG_shortA;UG;short;I november*Helene*strikker*str?mper*p? bussen.;n;no question;no answer;no answer;-1;-1;-1;1960;4;strømper;O;1;136;136;136;136;0;0;895;24;M
11;13;t28;28;3;3;UG_shortA;UG;short;I november*Helene*strikker*str?mper*p? bussen.;n;no question;no answer;no answer;-1;-1;-1;1960;5;på bussen.;A2;1;159;159;159;159;0;0;895;24;M
11;14;t25;29;3;3;UG_longA;UG;long;P? lune solskinnsdager i mars*pensjonistene*bes?ker*Botanisk hage*inne i byen.;y;Bes?ker pensjonistene en pub i mars?;f;Left;1;Left;2594;4380;1;På lune solskinnsdager i mars;A1;1;198;1164;1164;1164;0;0;2949;24;M
11;14;t25;29;3;3;UG_longA;UG;long;P? lune solskinnsdager i mars*pensjonistene*bes?ker*Botanisk hage*inne i byen.;y;Bes?ker pensjonistene en pub i mars?;f;Left;1;Left;2594;4380;2;pensjonistene;S;1;249;249;249;567;0;0;2949;24;M
11;14;t25;29;3;3;UG_longA;UG;long;P? lune solskinnsdager i mars*pensjonistene*bes?ker*Botanisk hage*inne i byen.;y;Bes?ker pensjonistene en pub i mars?;f;Left;1;Left;2594;4380;3;besøker;V;1;151;151;638;320;1;0;2949;24;M
11;14;t25;29;3;3;UG_longA;UG;long;P? lune solskinnsdager i mars*pensjonistene*bes?ker*Botanisk hage*inne i byen.;y;Bes?ker pensjonistene en pub i mars?;f;Left;1;Left;2594;4380;4;Botanisk hage;O;1;216;216;216;216;0;0;2949;24;M
11;14;t25;29;3;3;UG_longA;UG;long;P? lune solskinnsdager i mars*pensjonistene*bes?ker*Botanisk hage*inne i byen.;y;Bes?ker pensjonistene en pub i mars?;f;Left;1;Left;2594;4380;5;inne i byen.;A2;1;198;682;682;682;0;0;2949;24;M
11;15;t21;31;3;3;G_longA;G;long;P? triste gr?v?rsdager i april*leser*bestemor*magasiner*i hagestuen.;n;no question;no answer;no answer;-1;-1;-1;2848;1;På triste gråværsdager i april;A1;1;120;1112;1112;1112;0;0;1876;24;M
11;15;t21;31;3;3;G_longA;G;long;P? triste gr?v?rsdager i april*leser*bestemor*magasiner*i hagestuen.;n;no question;no answer;no answer;-1;-1;-1;2848;2;leser;V;.;.;.;.;0;.;1;1876;24;M
11;15;t21;31;3;3;G_longA;G;long;P? triste gr?v?rsdager i april*leser*bestemor*magasiner*i hagestuen.;n;no question;no answer;no answer;-1;-1;-1;2848;3;bestemor;S;1;155;155;155;155;0;0;1876;24;M
11;15;t21;31;3;3;G_longA;G;long;P? triste gr?v?rsdager i april*leser*bestemor*magasiner*i hagestuen.;n;no question;no answer;no answer;-1;-1;-1;2848;4;magasiner;O;1;154;154;154;328;0;0;1876;24;M
11;15;t21;31;3;3;G_longA;G;long;P? triste gr?v?rsdager i april*leser*bestemor*magasiner*i hagestuen.;n;no question;no answer;no answer;-1;-1;-1;2848;5;i hagestuen.;A2;1;166;166;455;281;1;0;1876;24;M
11;16;t29;33;3;3;UG_shortA;UG;short;I august*Eirik*selger*blomster*p? torget.;y;Selger Eirik blomster i august?;t;Right;1;Right;2021;2001;1;I august;A1;1;210;210;210;210;0;0;904;24;M
11;16;t29;33;3;3;UG_shortA;UG;short;I august*Eirik*selger*blomster*p? torget.;y;Selger Eirik blomster i august?;t;Right;1;Right;2021;2001;2;Eirik;S;.;.;.;.;0;.;1;904;24;M
11;16;t29;33;3;3;UG_shortA;UG;short;I august*Eirik*selger*blomster*p? torget.;y;Selger Eirik blomster i august?;t;Right;1;Right;2021;2001;3;selger;V;1;135;217;217;217;0;0;904;24;M
11;16;t29;33;3;3;UG_shortA;UG;short;I august*Eirik*selger*blomster*p? torget.;y;Selger Eirik blomster i august?;t;Right;1;Right;2021;2001;4;blomster;O;1;238;238;238;238;0;0;904;24;M
11;16;t29;33;3;3;UG_shortA;UG;short;I august*Eirik*selger*blomster*p? torget.;y;Selger Eirik blomster i august?;t;Right;1;Right;2021;2001;5;på torget.;A2;1;125;239;239;239;0;0;904;24;M
11;17;t24;36;3;3;UG_longA;UG;long;Hver eneste dag i ferien*Helge*bygger*terrasse*i hagen.;n;no question;no answer;no answer;-1;-1;-1;2609;1;Hver eneste dag i ferien;A1;1;211;485;485;680;0;0;1297;24;M
11;17;t24;36;3;3;UG_longA;UG;long;Hver eneste dag i ferien*Helge*bygger*terrasse*i hagen.;n;no question;no answer;no answer;-1;-1;-1;2609;2;Helge;S;1;224;224;419;224;1;0;1297;24;M
11;17;t24;36;3;3;UG_longA;UG;long;Hver eneste dag i ferien*Helge*bygger*terrasse*i hagen.;n;no question;no answer;no answer;-1;-1;-1;2609;3;bygger;V;1;136;233;233;233;0;0;1297;24;M
11;17;t24;36;3;3;UG_longA;UG;long;Hver eneste dag i ferien*Helge*bygger*terrasse*i hagen.;n;no question;no answer;no answer;-1;-1;-1;2609;4;terrasse;O;1;160;160;160;160;0;0;1297;24;M
11;17;t24;36;3;3;UG_longA;UG;long;Hver eneste dag i ferien*Helge*bygger*terrasse*i hagen.;n;no question;no answer;no answer;-1;-1;-1;2609;5;i hagen.;A2;.;.;.;.;0;.;1;1297;24;M
11;18;t27;37;3;3;G_shortA;G;short;I totiden*henter*Astrid*tvillingene*p? skolen.;y;Henter Astrid tvillingene klokken fem i oddetallsuker?;f;Left;1;Left;2767;1973;1;I totiden;A1;1;94;200;200;200;0;0;927;24;M
11;18;t27;37;3;3;G_shortA;G;short;I totiden*henter*Astrid*tvillingene*p? skolen.;y;Henter Astrid tvillingene klokken fem i oddetallsuker?;f;Left;1;Left;2767;1973;2;henter;V;1;128;128;128;274;0;0;927;24;M
11;18;t27;37;3;3;G_shortA;G;short;I totiden*henter*Astrid*tvillingene*p? skolen.;y;Henter Astrid tvillingene klokken fem i oddetallsuker?;f;Left;1;Left;2767;1973;3;Astrid;S;1;154;154;300;154;1;0;927;24;M
11;18;t27;37;3;3;G_shortA;G;short;I totiden*henter*Astrid*tvillingene*p? skolen.;y;Henter Astrid tvillingene klokken fem i oddetallsuker?;f;Left;1;Left;2767;1973;4;tvillingene;O;1;104;104;104;104;0;0;927;24;M
11;18;t27;37;3;3;G_shortA;G;short;I totiden*henter*Astrid*tvillingene*p? skolen.;y;Henter Astrid tvillingene klokken fem i oddetallsuker?;f;Left;1;Left;2767;1973;5;på skolen.;A2;1;195;195;195;195;0;0;927;24;M
11;19;t30;38;3;3;UG_shortA;UG;short;Hver kveld*restauranten*tilbyr*middag*til knallpriser.;n;no question;no answer;no answer;-1;-1;-1;2148;1;Hver kveld;A1;1;150;253;253;253;0;0;961;24;M
11;19;t30;38;3;3;UG_shortA;UG;short;Hver kveld*restauranten*tilbyr*middag*til knallpriser.;n;no question;no answer;no answer;-1;-1;-1;2148;2;restauranten;S;1;147;147;147;147;0;0;961;24;M
11;19;t30;38;3;3;UG_shortA;UG;short;Hver kveld*restauranten*tilbyr*middag*til knallpriser.;n;no question;no answer;no answer;-1;-1;-1;2148;3;tilbyr;V;.;.;.;.;0;.;1;961;24;M
11;19;t30;38;3;3;UG_shortA;UG;short;Hver kveld*restauranten*tilbyr*middag*til knallpriser.;n;no question;no answer;no answer;-1;-1;-1;2148;4;middag;O;1;243;243;243;243;0;0;961;24;M
11;19;t30;38;3;3;UG_shortA;UG;short;Hver kveld*restauranten*tilbyr*middag*til knallpriser.;n;no question;no answer;no answer;-1;-1;-1;2148;5;til knallpriser.;A2;1;142;318;318;318;0;0;961;24;M
11;20;t26;39;3;3;G_shortA;G;short;Om v?ren*f?der*kattene*ungene sine*ute i stallen.;n;no question;no answer;no answer;-1;-1;-1;2232;1;Om våren;A1;1;212;212;212;212;0;0;862;24;M
11;20;t26;39;3;3;G_shortA;G;short;Om v?ren*f?der*kattene*ungene sine*ute i stallen.;n;no question;no answer;no answer;-1;-1;-1;2232;2;føder;V;1;174;174;174;174;0;0;862;24;M
11;20;t26;39;3;3;G_shortA;G;short;Om v?ren*f?der*kattene*ungene sine*ute i stallen.;n;no question;no answer;no answer;-1;-1;-1;2232;3;kattene;S;1;133;133;133;133;0;0;862;24;M
11;20;t26;39;3;3;G_shortA;G;short;Om v?ren*f?der*kattene*ungene sine*ute i stallen.;n;no question;no answer;no answer;-1;-1;-1;2232;4;ungene sine;O;1;149;149;149;149;0;0;862;24;M
11;20;t26;39;3;3;G_shortA;G;short;Om v?ren*f?der*kattene*ungene sine*ute i stallen.;n;no question;no answer;no answer;-1;-1;-1;2232;5;ute i stallen.;A2;1;194;194;194;194;0;0;862;24;M
11;21;t10;43;3;1;UG_shortA;UG;short;P? s?ndager*Julie*synger*salmer*i kirken.;n;no question;no answer;no answer;-1;-1;-1;1930;1;På søndager;A1;1;121;250;250;250;0;0;802;24;M
11;21;t10;43;3;1;UG_shortA;UG;short;P? s?ndager*Julie*synger*salmer*i kirken.;n;no question;no answer;no answer;-1;-1;-1;1930;2;Julie;S;.;.;.;.;0;.;1;802;24;M
11;21;t10;43;3;1;UG_shortA;UG;short;P? s?ndager*Julie*synger*salmer*i kirken.;n;no question;no answer;no answer;-1;-1;-1;1930;3;synger;V;1;185;185;185;185;0;0;802;24;M
11;21;t10;43;3;1;UG_shortA;UG;short;P? s?ndager*Julie*synger*salmer*i kirken.;n;no question;no answer;no answer;-1;-1;-1;1930;4;salmer;O;1;189;189;189;189;0;0;802;24;M
11;21;t10;43;3;1;UG_shortA;UG;short;P? s?ndager*Julie*synger*salmer*i kirken.;n;no question;no answer;no answer;-1;-1;-1;1930;5;i kirken.;A2;1;83;178;178;178;0;0;802;24;M
11;22;t4;44;3;1;UG_longA;UG;long;Etter middag hver l?rdag kveld*gutten*spiser*gelato*p? Solsiden.;n;no question;no answer;no answer;-1;-1;-1;2529;1;Etter middag hver lørdag kveld;A1;1;98;366;366;366;0;0;1013;24;M
11;22;t4;44;3;1;UG_longA;UG;long;Etter middag hver l?rdag kveld*gutten*spiser*gelato*p? Solsiden.;n;no question;no answer;no answer;-1;-1;-1;2529;2;gutten;S;.;.;.;.;0;.;1;1013;24;M
11;22;t4;44;3;1;UG_longA;UG;long;Etter middag hver l?rdag kveld*gutten*spiser*gelato*p? Solsiden.;n;no question;no answer;no answer;-1;-1;-1;2529;3;spiser;V;1;123;123;123;290;0;0;1013;24;M
11;22;t4;44;3;1;UG_longA;UG;long;Etter middag hver l?rdag kveld*gutten*spiser*gelato*p? Solsiden.;n;no question;no answer;no answer;-1;-1;-1;2529;4;gelato;O;0;93;93;93;93;0;1;1013;24;M
11;22;t4;44;3;1;UG_longA;UG;long;Etter middag hver l?rdag kveld*gutten*spiser*gelato*p? Solsiden.;n;no question;no answer;no answer;-1;-1;-1;2529;5;på Solsiden.;A2;1;264;264;524;264;0;0;1013;24;M
11;23;t9;45;3;1;UG_shortA;UG;short;Om morgenen*hunden*drikker*vann*fra toalettet.;n;no question;no answer;no answer;-1;-1;-1;1929;1;Om morgenen;A1;1;122;229;229;229;0;0;805;24;M
11;23;t9;45;3;1;UG_shortA;UG;short;Om morgenen*hunden*drikker*vann*fra toalettet.;n;no question;no answer;no answer;-1;-1;-1;1929;2;hunden;S;1;132;132;132;132;0;0;805;24;M
11;23;t9;45;3;1;UG_shortA;UG;short;Om morgenen*hunden*drikker*vann*fra toalettet.;n;no question;no answer;no answer;-1;-1;-1;1929;3;drikker;V;1;155;155;155;155;0;0;805;24;M
11;23;t9;45;3;1;UG_shortA;UG;short;Om morgenen*hunden*drikker*vann*fra toalettet.;n;no question;no answer;no answer;-1;-1;-1;1929;4;vann;O;.;.;.;.;0;.;1;805;24;M
11;23;t9;45;3;1;UG_shortA;UG;short;Om morgenen*hunden*drikker*vann*fra toalettet.;n;no question;no answer;no answer;-1;-1;-1;1929;5;fra toalettet.;A2;1;148;289;289;289;0;0;805;24;M
11;24;t7;47;3;1;G_shortA;G;short;I desember*sender*bestefar*julekort*til alle barnebarna sine.;y;Sender bestefar julekort i november?;f;Left;1;Left;4609;2077;1;I desember;A1;1;98;98;98;98;0;0;909;24;M
11;24;t7;47;3;1;G_shortA;G;short;I desember*sender*bestefar*julekort*til alle barnebarna sine.;y;Sender bestefar julekort i november?;f;Left;1;Left;4609;2077;2;sender;V;1;143;143;143;143;0;0;909;24;M
11;24;t7;47;3;1;G_shortA;G;short;I desember*sender*bestefar*julekort*til alle barnebarna sine.;y;Sender bestefar julekort i november?;f;Left;1;Left;4609;2077;3;bestefar;S;1;174;174;174;174;0;0;909;24;M
